
  ZVRE, 2.05

  stimulus-start        ; stimulus-stop       ; stimulus-unit       ; nof-points; parameter-type; impedance-ohm
  1.00000000000E+06     ; 1.00000000000E+09   ; Hz                  ; 1601      ; S21           ; 50        

  conversion            ; time-domain         ; data-format         ; param-unit; smoothing     ; trace-math
  S                     ; none                ; MAGNITUDE           ; dB        ; none          ; none

  sweep-mode-type       ; notlinear-meas-mode 
  FUNDAMENTAL           ; none                


  freq              ;  S21          
   1.00000000000E+06; -22.5885      
   1.62437500000E+06; -28.5929      
   2.24875000000E+06; -21.8434      
   2.87312500000E+06; -24.5942      
   3.49750000000E+06; -36.0995      
   4.12187500000E+06; -24.9308      
   4.74625000000E+06; -34.6208      
   5.37062500000E+06; -39.3056      
   5.99500000000E+06; -24.0166      
   6.61937500000E+06; -31.3603      
   7.24375000000E+06; -26.3034      
   7.86812500000E+06; -29.7441      
   8.49250000000E+06; -31.9558      
   9.11687500000E+06; -36.2255      
   9.74125000000E+06; -29.2869      
   1.03656250000E+07; -31.2838      
   1.09900000000E+07; -26.6511      
   1.16143750000E+07; -37.6845      
   1.22387500000E+07; -27.9346      
   1.28631250000E+07; -43.7387      
   1.34875000000E+07; -33.3719      
   1.41118750000E+07; -33.1902      
   1.47362500000E+07; -37.8564      
   1.53606250000E+07; -41.703       
   1.59850000000E+07; -37.0369      
   1.66093750000E+07; -35.7641      
   1.72337500000E+07; -35.5813      
   1.78581250000E+07; -38.2171      
   1.84825000000E+07; -39.5731      
   1.91068750000E+07; -48.0432      
   1.97312500000E+07; -38.8337      
   2.03556250000E+07; -30.4751      
   2.09800000000E+07; -37.408       
   2.16043750000E+07; -36.2842      
   2.22287500000E+07; -38.4037      
   2.28531250000E+07; -40.7941      
   2.34775000000E+07; -35.2322      
   2.41018750000E+07; -35.6001      
   2.47262500000E+07; -39.7109      
   2.53506250000E+07; -47.707       
   2.59750000000E+07; -39.2795      
   2.65993750000E+07; -41.9967      
   2.72237500000E+07; -38.8766      
   2.78481250000E+07; -45.8112      
   2.84725000000E+07; -44.6636      
   2.90968750000E+07; -41.0382      
   2.97212500000E+07; -42.3098      
   3.03456250000E+07; -42.9839      
   3.09700000000E+07; -43.6925      
   3.15943750000E+07; -39.3532      
   3.22187500000E+07; -42.6218      
   3.28431250000E+07; -41.0417      
   3.34675000000E+07; -41.3714      
   3.40918750000E+07; -41.4916      
   3.47162500000E+07; -45.7227      
   3.53406250000E+07; -43.7228      
   3.59650000000E+07; -40.3395      
   3.65893750000E+07; -40.1009      
   3.72137500000E+07; -40.3137      
   3.78381250000E+07; -40.1542      
   3.84625000000E+07; -44.2821      
   3.90868750000E+07; -36.539       
   3.97112500000E+07; -39.919       
   4.03356250000E+07; -43.6787      
   4.09600000000E+07; -27.7346      
   4.15843750000E+07; -39.4214      
   4.22087500000E+07; -40.8322      
   4.28331250000E+07; -48.8072      
   4.34575000000E+07; -40.899       
   4.40818750000E+07; -42.6195      
   4.47062500000E+07; -39.7784      
   4.53306250000E+07; -43.9877      
   4.59550000000E+07; -30.7221      
   4.65793750000E+07; -41.4473      
   4.72037500000E+07; -42.0291      
   4.78281250000E+07; -40.5348      
   4.84525000000E+07; -41.2719      
   4.90768750000E+07; -40.1612      
   4.97012500000E+07; -49.5336      
   5.03256250000E+07; -37.3504      
   5.09500000000E+07; -39.1307      
   5.15743750000E+07; -40.7647      
   5.21987500000E+07; -41.2989      
   5.28231250000E+07; -37.8416      
   5.34475000000E+07; -43.5292      
   5.40718750000E+07; -41.4068      
   5.46962500000E+07; -43.6156      
   5.53206250000E+07; -51.3849      
   5.59450000000E+07; -46.45        
   5.65693750000E+07; -40.282       
   5.71937500000E+07; -39.3631      
   5.78181250000E+07; -39.7326      
   5.84425000000E+07; -41.7008      
   5.90668750000E+07; -42.1743      
   5.96912500000E+07; -40.8973      
   6.03156250000E+07; -43.2218      
   6.09400000000E+07; -39.5673      
   6.15643750000E+07; -40.4572      
   6.21887500000E+07; -42.7681      
   6.28131250000E+07; -41.4497      
   6.34375000000E+07; -40.7617      
   6.40618750000E+07; -44.6692      
   6.46862500000E+07; -40.0391      
   6.53106250000E+07; -45.4451      
   6.59350000000E+07; -45.0228      
   6.65593750000E+07; -42.574       
   6.71837500000E+07; -42.6077      
   6.78081250000E+07; -42.1845      
   6.84325000000E+07; -42.8676      
   6.90568750000E+07; -45.3891      
   6.96812500000E+07; -40.377       
   7.03056250000E+07; -42.4851      
   7.09300000000E+07; -38.6949      
   7.15543750000E+07; -40.6522      
   7.21787500000E+07; -39.229       
   7.28031250000E+07; -39.021       
   7.34275000000E+07; -38.5394      
   7.40518750000E+07; -40.616       
   7.46762500000E+07; -41.6291      
   7.53006250000E+07; -45.292       
   7.59250000000E+07; -48.5015      
   7.65493750000E+07; -41.1456      
   7.71737500000E+07; -44.0263      
   7.77981250000E+07; -37.1362      
   7.84225000000E+07; -40.3118      
   7.90468750000E+07; -41.4902      
   7.96712500000E+07; -42.6704      
   8.02956250000E+07; -44.3003      
   8.09200000000E+07; -39.2215      
   8.15443750000E+07; -42.0879      
   8.21687500000E+07; -42.1745      
   8.27931250000E+07; -44.217       
   8.34175000000E+07; -38.3272      
   8.40418750000E+07; -44.844       
   8.46662500000E+07; -42.6622      
   8.52906250000E+07; -43.4696      
   8.59150000000E+07; -42.5383      
   8.65393750000E+07; -40.1685      
   8.71637500000E+07; -39.797       
   8.77881250000E+07; -41.5274      
   8.84125000000E+07; -41.4566      
   8.90368750000E+07; -39.9207      
   8.96612500000E+07; -41.8339      
   9.02856250000E+07; -38.81        
   9.09100000000E+07; -41.4198      
   9.15343750000E+07; -45.4585      
   9.21587500000E+07; -42.6235      
   9.27831250000E+07; -39.525       
   9.34075000000E+07; -40.3249      
   9.40318750000E+07; -40.2024      
   9.46562500000E+07; -44.8017      
   9.52806250000E+07; -41.8474      
   9.59050000000E+07; -43.5722      
   9.65293750000E+07; -42.6613      
   9.71537500000E+07; -41.8057      
   9.77781250000E+07; -38.2472      
   9.84025000000E+07; -41.1025      
   9.90268750000E+07; -43.185       
   9.96512500000E+07; -46.3005      
   1.00275625000E+08; -41.5684      
   1.00900000000E+08; -41.4578      
   1.01524375000E+08; -41.2574      
   1.02148750000E+08; -40.4592      
   1.02773125000E+08; -40.3399      
   1.03397500000E+08; -40.71        
   1.04021875000E+08; -39.3256      
   1.04646250000E+08; -39.8656      
   1.05270625000E+08; -40.6934      
   1.05895000000E+08; -39.3354      
   1.06519375000E+08; -42.9237      
   1.07143750000E+08; -37.0948      
   1.07768125000E+08; -39.6933      
   1.08392500000E+08; -40.1678      
   1.09016875000E+08; -42.0856      
   1.09641250000E+08; -39.8916      
   1.10265625000E+08; -39.6303      
   1.10890000000E+08; -40.6418      
   1.11514375000E+08; -39.7832      
   1.12138750000E+08; -41.4819      
   1.12763125000E+08; -40.1013      
   1.13387500000E+08; -42.3255      
   1.14011875000E+08; -45.391       
   1.14636250000E+08; -40.7095      
   1.15260625000E+08; -38.9979      
   1.15885000000E+08; -42.4918      
   1.16509375000E+08; -41.5627      
   1.17133750000E+08; -43.7774      
   1.17758125000E+08; -37.3561      
   1.18382500000E+08; -40.3369      
   1.19006875000E+08; -39.7687      
   1.19631250000E+08; -39.9268      
   1.20255625000E+08; -41.1974      
   1.20880000000E+08; -42.1374      
   1.21504375000E+08; -42.7153      
   1.22128750000E+08; -41.4917      
   1.22753125000E+08; -41.0907      
   1.23377500000E+08; -39.6897      
   1.24001875000E+08; -39.0854      
   1.24626250000E+08; -40.6859      
   1.25250625000E+08; -37.543       
   1.25875000000E+08; -38.9297      
   1.26499375000E+08; -40.0803      
   1.27123750000E+08; -41.0763      
   1.27748125000E+08; -40.2753      
   1.28372500000E+08; -40.8684      
   1.28996875000E+08; -41.8523      
   1.29621250000E+08; -40.0221      
   1.30245625000E+08; -40.5424      
   1.30870000000E+08; -43.48        
   1.31494375000E+08; -38.2272      
   1.32118750000E+08; -39.2142      
   1.32743125000E+08; -42.4726      
   1.33367500000E+08; -39.6788      
   1.33991875000E+08; -38.7308      
   1.34616250000E+08; -39.6311      
   1.35240625000E+08; -37.9034      
   1.35865000000E+08; -40.2064      
   1.36489375000E+08; -40.0237      
   1.37113750000E+08; -40.6757      
   1.37738125000E+08; -38.9694      
   1.38362500000E+08; -40.9571      
   1.38986875000E+08; -38.4706      
   1.39611250000E+08; -42.29        
   1.40235625000E+08; -41.0481      
   1.40860000000E+08; -40.3775      
   1.41484375000E+08; -41.4829      
   1.42108750000E+08; -40.2384      
   1.42733125000E+08; -39.4556      
   1.43357500000E+08; -39.5743      
   1.43981875000E+08; -38.3815      
   1.44606250000E+08; -39.4346      
   1.45230625000E+08; -42.3408      
   1.45855000000E+08; -40.2387      
   1.46479375000E+08; -40.8094      
   1.47103750000E+08; -39.7737      
   1.47728125000E+08; -41.3885      
   1.48352500000E+08; -39.1949      
   1.48976875000E+08; -39.5991      
   1.49601250000E+08; -41.6256      
   1.50225625000E+08; -41.4182      
   1.50850000000E+08; -38.8418      
   1.51474375000E+08; -41.0205      
   1.52098750000E+08; -40.641       
   1.52723125000E+08; -41.3637      
   1.53347500000E+08; -40.4877      
   1.53971875000E+08; -39.8825      
   1.54596250000E+08; -40.8996      
   1.55220625000E+08; -40.2335      
   1.55845000000E+08; -39.231       
   1.56469375000E+08; -41.6822      
   1.57093750000E+08; -40.275       
   1.57718125000E+08; -40.1245      
   1.58342500000E+08; -39.3335      
   1.58966875000E+08; -40.9783      
   1.59591250000E+08; -39.2934      
   1.60215625000E+08; -38.8436      
   1.60840000000E+08; -40.2824      
   1.61464375000E+08; -38.8823      
   1.62088750000E+08; -38.1344      
   1.62713125000E+08; -40.2105      
   1.63337500000E+08; -41.3636      
   1.63961875000E+08; -38.7882      
   1.64586250000E+08; -38.7733      
   1.65210625000E+08; -39.3076      
   1.65835000000E+08; -40.0189      
   1.66459375000E+08; -39.3556      
   1.67083750000E+08; -39.5878      
   1.67708125000E+08; -40.9339      
   1.68332500000E+08; -38.1031      
   1.68956875000E+08; -39.7677      
   1.69581250000E+08; -39.5164      
   1.70205625000E+08; -39.7089      
   1.70830000000E+08; -40.8348      
   1.71454375000E+08; -39.9597      
   1.72078750000E+08; -37.7244      
   1.72703125000E+08; -40.3496      
   1.73327500000E+08; -37.9498      
   1.73951875000E+08; -41.0728      
   1.74576250000E+08; -39.3988      
   1.75200625000E+08; -38.947       
   1.75825000000E+08; -39.7168      
   1.76449375000E+08; -40.3874      
   1.77073750000E+08; -39.1335      
   1.77698125000E+08; -39.5882      
   1.78322500000E+08; -40.8497      
   1.78946875000E+08; -40.2734      
   1.79571250000E+08; -39.6979      
   1.80195625000E+08; -39.423       
   1.80820000000E+08; -39.9546      
   1.81444375000E+08; -40.0111      
   1.82068750000E+08; -39.0163      
   1.82693125000E+08; -41.2103      
   1.83317500000E+08; -40.3118      
   1.83941875000E+08; -40.717       
   1.84566250000E+08; -40.8261      
   1.85190625000E+08; -40.9159      
   1.85815000000E+08; -39.7438      
   1.86439375000E+08; -41.9277      
   1.87063750000E+08; -39.2484      
   1.87688125000E+08; -39.8159      
   1.88312500000E+08; -40.2884      
   1.88936875000E+08; -39.907       
   1.89561250000E+08; -37.913       
   1.90185625000E+08; -39.1727      
   1.90810000000E+08; -40.9503      
   1.91434375000E+08; -39.8993      
   1.92058750000E+08; -38.8606      
   1.92683125000E+08; -41.2085      
   1.93307500000E+08; -40.1531      
   1.93931875000E+08; -40.9249      
   1.94556250000E+08; -39.0446      
   1.95180625000E+08; -39.6429      
   1.95805000000E+08; -39.7471      
   1.96429375000E+08; -38.8131      
   1.97053750000E+08; -38.3018      
   1.97678125000E+08; -39.0131      
   1.98302500000E+08; -38.7981      
   1.98926875000E+08; -40.051       
   1.99551250000E+08; -39.788       
   2.00175625000E+08; -38.8979      
   2.00800000000E+08; -38.2513      
   2.01424375000E+08; -39.5277      
   2.02048750000E+08; -37.902       
   2.02673125000E+08; -38.3017      
   2.03297500000E+08; -39.419       
   2.03921875000E+08; -38.7509      
   2.04546250000E+08; -39.8985      
   2.05170625000E+08; -40.0732      
   2.05795000000E+08; -40.519       
   2.06419375000E+08; -39.2875      
   2.07043750000E+08; -37.2534      
   2.07668125000E+08; -40.6746      
   2.08292500000E+08; -40.7058      
   2.08916875000E+08; -39.4892      
   2.09541250000E+08; -39.6968      
   2.10165625000E+08; -40.4531      
   2.10790000000E+08; -37.97        
   2.11414375000E+08; -39.3092      
   2.12038750000E+08; -39.9716      
   2.12663125000E+08; -39.6566      
   2.13287500000E+08; -39.0879      
   2.13911875000E+08; -39.6974      
   2.14536250000E+08; -39.8824      
   2.15160625000E+08; -39.0048      
   2.15785000000E+08; -39.4313      
   2.16409375000E+08; -40.1761      
   2.17033750000E+08; -41.2769      
   2.17658125000E+08; -40.4363      
   2.18282500000E+08; -38.4647      
   2.18906875000E+08; -38.4132      
   2.19531250000E+08; -39.0632      
   2.20155625000E+08; -39.9263      
   2.20780000000E+08; -38.4516      
   2.21404375000E+08; -39.1358      
   2.22028750000E+08; -39.672       
   2.22653125000E+08; -38.5376      
   2.23277500000E+08; -40.2961      
   2.23901875000E+08; -40.8811      
   2.24526250000E+08; -39.1596      
   2.25150625000E+08; -38.9259      
   2.25775000000E+08; -40.2625      
   2.26399375000E+08; -39.3601      
   2.27023750000E+08; -38.8707      
   2.27648125000E+08; -40.1318      
   2.28272500000E+08; -39.9974      
   2.28896875000E+08; -39.1834      
   2.29521250000E+08; -39.8911      
   2.30145625000E+08; -38.3537      
   2.30770000000E+08; -39.1289      
   2.31394375000E+08; -38.4314      
   2.32018750000E+08; -38.4858      
   2.32643125000E+08; -39.4213      
   2.33267500000E+08; -39.4245      
   2.33891875000E+08; -38.8466      
   2.34516250000E+08; -38.2392      
   2.35140625000E+08; -37.9237      
   2.35765000000E+08; -38.5039      
   2.36389375000E+08; -37.8946      
   2.37013750000E+08; -39.4113      
   2.37638125000E+08; -39.1119      
   2.38262500000E+08; -38.6566      
   2.38886875000E+08; -38.3521      
   2.39511250000E+08; -40.9317      
   2.40135625000E+08; -39.8261      
   2.40760000000E+08; -38.3544      
   2.41384375000E+08; -40.7443      
   2.42008750000E+08; -38.2825      
   2.42633125000E+08; -40.1188      
   2.43257500000E+08; -40.0095      
   2.43881875000E+08; -38.5488      
   2.44506250000E+08; -39.8018      
   2.45130625000E+08; -39.5945      
   2.45755000000E+08; -40.1708      
   2.46379375000E+08; -40.0488      
   2.47003750000E+08; -38.2065      
   2.47628125000E+08; -40.8509      
   2.48252500000E+08; -37.7965      
   2.48876875000E+08; -38.3248      
   2.49501250000E+08; -40.4956      
   2.50125625000E+08; -38.5677      
   2.50750000000E+08; -39.1697      
   2.51374375000E+08; -39.2207      
   2.51998750000E+08; -39.7902      
   2.52623125000E+08; -38.1954      
   2.53247500000E+08; -40.6279      
   2.53871875000E+08; -38.6294      
   2.54496250000E+08; -38.7642      
   2.55120625000E+08; -38.6748      
   2.55745000000E+08; -37.8273      
   2.56369375000E+08; -39.2895      
   2.56993750000E+08; -40.4222      
   2.57618125000E+08; -39.3562      
   2.58242500000E+08; -40.1801      
   2.58866875000E+08; -39.0634      
   2.59491250000E+08; -38.8042      
   2.60115625000E+08; -40.513       
   2.60740000000E+08; -39.8569      
   2.61364375000E+08; -40.4056      
   2.61988750000E+08; -40.2613      
   2.62613125000E+08; -41.0853      
   2.63237500000E+08; -40.6206      
   2.63861875000E+08; -39.037       
   2.64486250000E+08; -40.1222      
   2.65110625000E+08; -39.5832      
   2.65735000000E+08; -41.2887      
   2.66359375000E+08; -39.4703      
   2.66983750000E+08; -40.3056      
   2.67608125000E+08; -39.8764      
   2.68232500000E+08; -39.7106      
   2.68856875000E+08; -39.3828      
   2.69481250000E+08; -39.2718      
   2.70105625000E+08; -40.3548      
   2.70730000000E+08; -38.8108      
   2.71354375000E+08; -40.4112      
   2.71978750000E+08; -39.4138      
   2.72603125000E+08; -39.317       
   2.73227500000E+08; -38.5499      
   2.73851875000E+08; -39.6326      
   2.74476250000E+08; -41.8843      
   2.75100625000E+08; -39.0473      
   2.75725000000E+08; -39.7557      
   2.76349375000E+08; -38.0696      
   2.76973750000E+08; -40.2255      
   2.77598125000E+08; -40.2304      
   2.78222500000E+08; -38.4506      
   2.78846875000E+08; -40.7979      
   2.79471250000E+08; -40.0426      
   2.80095625000E+08; -39.8163      
   2.80720000000E+08; -39.7208      
   2.81344375000E+08; -39.6901      
   2.81968750000E+08; -39.5626      
   2.82593125000E+08; -38.3287      
   2.83217500000E+08; -37.8364      
   2.83841875000E+08; -38.4034      
   2.84466250000E+08; -38.321       
   2.85090625000E+08; -38.891       
   2.85715000000E+08; -39.2844      
   2.86339375000E+08; -38.8877      
   2.86963750000E+08; -37.7539      
   2.87588125000E+08; -37.9504      
   2.88212500000E+08; -37.6867      
   2.88836875000E+08; -37.8681      
   2.89461250000E+08; -37.7194      
   2.90085625000E+08; -38.0054      
   2.90710000000E+08; -37.5912      
   2.91334375000E+08; -40.1142      
   2.91958750000E+08; -38.1644      
   2.92583125000E+08; -38.075       
   2.93207500000E+08; -39.413       
   2.93831875000E+08; -38.0195      
   2.94456250000E+08; -38.5571      
   2.95080625000E+08; -38.2831      
   2.95705000000E+08; -38.7969      
   2.96329375000E+08; -39.6996      
   2.96953750000E+08; -40.1074      
   2.97578125000E+08; -39.2976      
   2.98202500000E+08; -37.3278      
   2.98826875000E+08; -38.7715      
   2.99451250000E+08; -38.8266      
   3.00075625000E+08; -40.3843      
   3.00700000000E+08; -39.0118      
   3.01324375000E+08; -38.7142      
   3.01948750000E+08; -37.8745      
   3.02573125000E+08; -39.1057      
   3.03197500000E+08; -38.2978      
   3.03821875000E+08; -39.1261      
   3.04446250000E+08; -39.1035      
   3.05070625000E+08; -39.2113      
   3.05695000000E+08; -39.996       
   3.06319375000E+08; -39.1505      
   3.06943750000E+08; -39.7704      
   3.07568125000E+08; -39.3376      
   3.08192500000E+08; -39.4867      
   3.08816875000E+08; -39.246       
   3.09441250000E+08; -38.409       
   3.10065625000E+08; -39.5211      
   3.10690000000E+08; -38.319       
   3.11314375000E+08; -38.9051      
   3.11938750000E+08; -38.5558      
   3.12563125000E+08; -38.6611      
   3.13187500000E+08; -38.3567      
   3.13811875000E+08; -40.0754      
   3.14436250000E+08; -38.4714      
   3.15060625000E+08; -38.6678      
   3.15685000000E+08; -38.8902      
   3.16309375000E+08; -37.9388      
   3.16933750000E+08; -38.627       
   3.17558125000E+08; -37.6711      
   3.18182500000E+08; -37.3033      
   3.18806875000E+08; -37.2148      
   3.19431250000E+08; -37.9501      
   3.20055625000E+08; -37.2906      
   3.20680000000E+08; -36.8559      
   3.21304375000E+08; -38.6191      
   3.21928750000E+08; -37.6605      
   3.22553125000E+08; -37.8124      
   3.23177500000E+08; -37.1774      
   3.23801875000E+08; -37.2665      
   3.24426250000E+08; -39.5169      
   3.25050625000E+08; -38.5392      
   3.25675000000E+08; -39.1263      
   3.26299375000E+08; -38.9808      
   3.26923750000E+08; -37.942       
   3.27548125000E+08; -38.9793      
   3.28172500000E+08; -38.3626      
   3.28796875000E+08; -39.0612      
   3.29421250000E+08; -39.2168      
   3.30045625000E+08; -39.1682      
   3.30670000000E+08; -38.819       
   3.31294375000E+08; -39.0907      
   3.31918750000E+08; -38.8188      
   3.32543125000E+08; -39.178       
   3.33167500000E+08; -38.8741      
   3.33791875000E+08; -38.6002      
   3.34416250000E+08; -37.8558      
   3.35040625000E+08; -40.1585      
   3.35665000000E+08; -38.7576      
   3.36289375000E+08; -38.6713      
   3.36913750000E+08; -37.4503      
   3.37538125000E+08; -39.0249      
   3.38162500000E+08; -38.4212      
   3.38786875000E+08; -39.3944      
   3.39411250000E+08; -38.0086      
   3.40035625000E+08; -38.4669      
   3.40660000000E+08; -39.3615      
   3.41284375000E+08; -38.4146      
   3.41908750000E+08; -39.8567      
   3.42533125000E+08; -38.794       
   3.43157500000E+08; -38.7123      
   3.43781875000E+08; -41.1027      
   3.44406250000E+08; -38.8499      
   3.45030625000E+08; -39.1294      
   3.45655000000E+08; -39.3828      
   3.46279375000E+08; -42.0548      
   3.46903750000E+08; -40.2745      
   3.47528125000E+08; -38.375       
   3.48152500000E+08; -37.563       
   3.48776875000E+08; -37.5312      
   3.49401250000E+08; -38.5569      
   3.50025625000E+08; -39.4632      
   3.50650000000E+08; -37.8043      
   3.51274375000E+08; -37.4636      
   3.51898750000E+08; -37.7754      
   3.52523125000E+08; -38.4808      
   3.53147500000E+08; -36.7411      
   3.53771875000E+08; -37.1871      
   3.54396250000E+08; -36.1194      
   3.55020625000E+08; -37.6158      
   3.55645000000E+08; -37.1473      
   3.56269375000E+08; -38.4066      
   3.56893750000E+08; -38.3341      
   3.57518125000E+08; -37.4352      
   3.58142500000E+08; -37.8356      
   3.58766875000E+08; -38.2335      
   3.59391250000E+08; -39.1243      
   3.60015625000E+08; -39.0232      
   3.60640000000E+08; -38.0678      
   3.61264375000E+08; -38.7067      
   3.61888750000E+08; -38.8788      
   3.62513125000E+08; -40.9733      
   3.63137500000E+08; -39.9509      
   3.63761875000E+08; -39.3212      
   3.64386250000E+08; -38.0563      
   3.65010625000E+08; -38.8843      
   3.65635000000E+08; -37.5322      
   3.66259375000E+08; -38.5916      
   3.66883750000E+08; -38.3227      
   3.67508125000E+08; -39.1269      
   3.68132500000E+08; -37.5902      
   3.68756875000E+08; -36.6569      
   3.69381250000E+08; -37.1493      
   3.70005625000E+08; -36.5559      
   3.70630000000E+08; -37.7123      
   3.71254375000E+08; -37.1841      
   3.71878750000E+08; -37.1179      
   3.72503125000E+08; -38.4804      
   3.73127500000E+08; -37.7317      
   3.73751875000E+08; -37.8277      
   3.74376250000E+08; -38.6952      
   3.75000625000E+08; -38.5865      
   3.75625000000E+08; -39.2184      
   3.76249375000E+08; -39.4634      
   3.76873750000E+08; -41.0054      
   3.77498125000E+08; -39.6254      
   3.78122500000E+08; -39.7387      
   3.78746875000E+08; -38.7468      
   3.79371250000E+08; -39.5903      
   3.79995625000E+08; -40.8456      
   3.80620000000E+08; -39.9712      
   3.81244375000E+08; -37.832       
   3.81868750000E+08; -35.1381      
   3.82493125000E+08; -35.8195      
   3.83117500000E+08; -35.4874      
   3.83741875000E+08; -37.151       
   3.84366250000E+08; -36.4625      
   3.84990625000E+08; -35.6216      
   3.85615000000E+08; -35.9261      
   3.86239375000E+08; -36.1599      
   3.86863750000E+08; -36.8083      
   3.87488125000E+08; -37.0088      
   3.88112500000E+08; -37.528       
   3.88736875000E+08; -37.7625      
   3.89361250000E+08; -38.3616      
   3.89985625000E+08; -40.8284      
   3.90610000000E+08; -37.6335      
   3.91234375000E+08; -36.059       
   3.91858750000E+08; -34.2757      
   3.92483125000E+08; -36.8368      
   3.93107500000E+08; -37.1779      
   3.93731875000E+08; -34.5799      
   3.94356250000E+08; -32.3531      
   3.94980625000E+08; -32.2595      
   3.95605000000E+08; -39.5509      
   3.96229375000E+08; -40.3177      
   3.96853750000E+08; -39.2201      
   3.97478125000E+08; -32.411       
   3.98102500000E+08; -29.5302      
   3.98726875000E+08; -40.579       
   3.99351250000E+08; -37.4367      
   3.99975625000E+08; -37.9276      
   4.00600000000E+08; -36.5935      
   4.01224375000E+08; -38.2246      
   4.01848750000E+08; -32.2041      
   4.02473125000E+08; -33.6275      
   4.03097500000E+08; -34.5762      
   4.03721875000E+08; -35.4658      
   4.04346250000E+08; -35.9331      
   4.04970625000E+08; -37.8177      
   4.05595000000E+08; -38.9039      
   4.06219375000E+08; -36.6473      
   4.06843750000E+08; -36.9804      
   4.07468125000E+08; -37.1798      
   4.08092500000E+08; -40.5663      
   4.08716875000E+08; -37.3886      
   4.09341250000E+08; -36.8829      
   4.09965625000E+08; -37.4378      
   4.10590000000E+08; -37.241       
   4.11214375000E+08; -35.4808      
   4.11838750000E+08; -33.6131      
   4.12463125000E+08; -34.2143      
   4.13087500000E+08; -33.499       
   4.13711875000E+08; -31.3604      
   4.14336250000E+08; -27.3335      
   4.14960625000E+08; -19.8433      
   4.15585000000E+08; -17.3329      
   4.16209375000E+08; -34.095       
   4.16833750000E+08; -33.1293      
   4.17458125000E+08; -19.6435      
   4.18082500000E+08; -5.83272      
   4.18706875000E+08; -9.7215       
   4.19331250000E+08; -24.15        
   4.19955625000E+08; -21.0464      
   4.20580000000E+08;  3.09888      
   4.21204375000E+08; -23.8915      
   4.21828750000E+08; -2.14784      
   4.22453125000E+08;  14.6025      
   4.23077500000E+08;  18.6313      
   4.23701875000E+08;  19.3396      
   4.24326250000E+08;  19.3824      
   4.24950625000E+08;  19.702       
   4.25575000000E+08;  19.9908      
   4.26199375000E+08;  20.2002      
   4.26823750000E+08;  20.2198      
   4.27448125000E+08;  20.099       
   4.28072500000E+08;  19.8352      
   4.28696875000E+08;  19.7909      
   4.29321250000E+08;  19.6717      
   4.29945625000E+08;  19.9443      
   4.30570000000E+08;  20.2098      
   4.31194375000E+08;  20.2341      
   4.31818750000E+08;  20.5896      
   4.32443125000E+08;  20.6713      
   4.33067500000E+08;  20.4342      
   4.33691875000E+08;  20.1663      
   4.34316250000E+08;  19.5184      
   4.34940625000E+08;  19.5498      
   4.35565000000E+08;  19.2038      
   4.36189375000E+08;  18.9336      
   4.36813750000E+08;  18.9394      
   4.37438125000E+08;  19.055       
   4.38062500000E+08;  19.2114      
   4.38686875000E+08;  19.4857      
   4.39311250000E+08;  19.5497      
   4.39935625000E+08;  20.1094      
   4.40560000000E+08;  19.989       
   4.41184375000E+08;  19.8211      
   4.41808750000E+08;  19.8645      
   4.42433125000E+08;  19.3683      
   4.43057500000E+08;  19.5728      
   4.43681875000E+08;  19.329       
   4.44306250000E+08;  19.083       
   4.44930625000E+08;  19.6203      
   4.45555000000E+08;  17.9269      
   4.46179375000E+08;  17.8888      
   4.46803750000E+08;  15.952       
   4.47428125000E+08;  12.7425      
   4.48052500000E+08;  10.0019      
   4.48676875000E+08;  7.4144       
   4.49301250000E+08;  4.88453      
   4.49925625000E+08;  2.42433      
   4.50550000000E+08; -0.42643      
   4.51174375000E+08; -2.27352      
   4.51798750000E+08; -4.85521      
   4.52423125000E+08; -7.28602      
   4.53047500000E+08; -9.31693      
   4.53671875000E+08; -10.0547      
   4.54296250000E+08; -10.1687      
   4.54920625000E+08; -11.2852      
   4.55545000000E+08; -13.7761      
   4.56169375000E+08; -13.8153      
   4.56793750000E+08; -17.7204      
   4.57418125000E+08; -17.0528      
   4.58042500000E+08; -16.2405      
   4.58666875000E+08; -19.061       
   4.59291250000E+08; -16.9114      
   4.59915625000E+08; -21.8175      
   4.60540000000E+08; -17.3728      
   4.61164375000E+08; -20.0137      
   4.61788750000E+08; -16.4964      
   4.62413125000E+08; -22.7058      
   4.63037500000E+08; -14.969       
   4.63661875000E+08; -19.462       
   4.64286250000E+08; -18.3522      
   4.64910625000E+08; -22.6054      
   4.65535000000E+08; -15.5533      
   4.66159375000E+08; -20.2437      
   4.66783750000E+08; -21.3125      
   4.67408125000E+08; -20.5794      
   4.68032500000E+08; -20.433       
   4.68656875000E+08; -21.5767      
   4.69281250000E+08; -24.92        
   4.69905625000E+08; -22.2162      
   4.70530000000E+08; -25.4506      
   4.71154375000E+08; -24.0647      
   4.71778750000E+08; -32.4215      
   4.72403125000E+08; -31.3895      
   4.73027500000E+08; -27.8049      
   4.73651875000E+08; -37.2982      
   4.74276250000E+08; -28.7875      
   4.74900625000E+08; -35.842       
   4.75525000000E+08; -44.8323      
   4.76149375000E+08; -48.3999      
   4.76773750000E+08; -53.9811      
   4.77398125000E+08; -37.1979      
   4.78022500000E+08; -37.982       
   4.78646875000E+08; -41.1165      
   4.79271250000E+08; -34.4558      
   4.79895625000E+08; -37.8114      
   4.80520000000E+08; -41.6437      
   4.81144375000E+08; -38.2157      
   4.81768750000E+08; -45.0988      
   4.82393125000E+08; -32.9779      
   4.83017500000E+08; -39.9133      
   4.83641875000E+08; -38.6238      
   4.84266250000E+08; -38.0806      
   4.84890625000E+08; -35.6297      
   4.85515000000E+08; -36.7109      
   4.86139375000E+08; -47.2224      
   4.86763750000E+08; -37.3283      
   4.87388125000E+08; -39.7112      
   4.88012500000E+08; -35.1195      
   4.88636875000E+08; -35.0392      
   4.89261250000E+08; -37.7334      
   4.89885625000E+08; -37.1207      
   4.90510000000E+08; -34.7007      
   4.91134375000E+08; -35.7022      
   4.91758750000E+08; -39.0821      
   4.92383125000E+08; -46.0956      
   4.93007500000E+08; -37.715       
   4.93631875000E+08; -38.1242      
   4.94256250000E+08; -40.2397      
   4.94880625000E+08; -37.5398      
   4.95505000000E+08; -35.7884      
   4.96129375000E+08; -40.0634      
   4.96753750000E+08; -39.9792      
   4.97378125000E+08; -38.2609      
   4.98002500000E+08; -37.7352      
   4.98626875000E+08; -36.818       
   4.99251250000E+08; -37.2728      
   4.99875625000E+08; -41.5356      
   5.00500000000E+08; -35.7356      
   5.01124375000E+08; -39.3071      
   5.01748750000E+08; -38.223       
   5.02373125000E+08; -43.3061      
   5.02997500000E+08; -38.4255      
   5.03621875000E+08; -37.619       
   5.04246250000E+08; -36.8723      
   5.04870625000E+08; -47.9205      
   5.05495000000E+08; -43.1363      
   5.06119375000E+08; -41.3772      
   5.06743750000E+08; -38.3638      
   5.07368125000E+08; -40.7699      
   5.07992500000E+08; -35.4586      
   5.08616875000E+08; -37.9365      
   5.09241250000E+08; -38.3603      
   5.09865625000E+08; -39.5922      
   5.10490000000E+08; -39.5003      
   5.11114375000E+08; -37.2215      
   5.11738750000E+08; -39.3221      
   5.12363125000E+08; -37.9395      
   5.12987500000E+08; -37.2689      
   5.13611875000E+08; -39.9025      
   5.14236250000E+08; -40.7676      
   5.14860625000E+08; -39.122       
   5.15485000000E+08; -37.6619      
   5.16109375000E+08; -35.7976      
   5.16733750000E+08; -37.7862      
   5.17358125000E+08; -42.8497      
   5.17982500000E+08; -41.1835      
   5.18606875000E+08; -39.3458      
   5.19231250000E+08; -36.1361      
   5.19855625000E+08; -37.3244      
   5.20480000000E+08; -41.6985      
   5.21104375000E+08; -37.6547      
   5.21728750000E+08; -39.8712      
   5.22353125000E+08; -37.6523      
   5.22977500000E+08; -42.4848      
   5.23601875000E+08; -39.6875      
   5.24226250000E+08; -39.3295      
   5.24850625000E+08; -35.9776      
   5.25475000000E+08; -34.6115      
   5.26099375000E+08; -39.5128      
   5.26723750000E+08; -38.4185      
   5.27348125000E+08; -37.7647      
   5.27972500000E+08; -37.0912      
   5.28596875000E+08; -38.0152      
   5.29221250000E+08; -38.1023      
   5.29845625000E+08; -38.9785      
   5.30470000000E+08; -39.8534      
   5.31094375000E+08; -36.6151      
   5.31718750000E+08; -38.9321      
   5.32343125000E+08; -41.6306      
   5.32967500000E+08; -39.8123      
   5.33591875000E+08; -37.3408      
   5.34216250000E+08; -37.0862      
   5.34840625000E+08; -38.2438      
   5.35465000000E+08; -37.5565      
   5.36089375000E+08; -41.3119      
   5.36713750000E+08; -35.1945      
   5.37338125000E+08; -37.1         
   5.37962500000E+08; -40.8209      
   5.38586875000E+08; -44.6269      
   5.39211250000E+08; -37.2373      
   5.39835625000E+08; -34.0332      
   5.40460000000E+08; -37.61        
   5.41084375000E+08; -38.5092      
   5.41708750000E+08; -44.2073      
   5.42333125000E+08; -33.0189      
   5.42957500000E+08; -35.0874      
   5.43581875000E+08; -41.572       
   5.44206250000E+08; -46.7264      
   5.44830625000E+08; -35.6834      
   5.45455000000E+08; -34.6787      
   5.46079375000E+08; -36.4072      
   5.46703750000E+08; -44.5841      
   5.47328125000E+08; -39.7008      
   5.47952500000E+08; -36.0223      
   5.48576875000E+08; -36.1515      
   5.49201250000E+08; -40.0076      
   5.49825625000E+08; -42.432       
   5.50450000000E+08; -36.4068      
   5.51074375000E+08; -37.0014      
   5.51698750000E+08; -39.1633      
   5.52323125000E+08; -39.3499      
   5.52947500000E+08; -40.8313      
   5.53571875000E+08; -36.1079      
   5.54196250000E+08; -36.7151      
   5.54820625000E+08; -38.5658      
   5.55445000000E+08; -38.7747      
   5.56069375000E+08; -40.6909      
   5.56693750000E+08; -39.6589      
   5.57318125000E+08; -38.4655      
   5.57942500000E+08; -37.662       
   5.58566875000E+08; -39.5991      
   5.59191250000E+08; -39.3303      
   5.59815625000E+08; -38.5746      
   5.60440000000E+08; -35.7944      
   5.61064375000E+08; -36.2074      
   5.61688750000E+08; -40.5507      
   5.62313125000E+08; -41.3109      
   5.62937500000E+08; -40.0832      
   5.63561875000E+08; -35.556       
   5.64186250000E+08; -37.07        
   5.64810625000E+08; -37.2422      
   5.65435000000E+08; -38.7257      
   5.66059375000E+08; -37.2283      
   5.66683750000E+08; -38.0055      
   5.67308125000E+08; -39.7509      
   5.67932500000E+08; -39.5151      
   5.68556875000E+08; -37.0641      
   5.69181250000E+08; -36.5731      
   5.69805625000E+08; -37.1833      
   5.70430000000E+08; -39.9561      
   5.71054375000E+08; -38.1201      
   5.71678750000E+08; -36.6657      
   5.72303125000E+08; -38.2912      
   5.72927500000E+08; -36.7041      
   5.73551875000E+08; -40.9151      
   5.74176250000E+08; -37.6312      
   5.74800625000E+08; -36.3748      
   5.75425000000E+08; -39.295       
   5.76049375000E+08; -36.8827      
   5.76673750000E+08; -39.9971      
   5.77298125000E+08; -36.7196      
   5.77922500000E+08; -37.6759      
   5.78546875000E+08; -37.3204      
   5.79171250000E+08; -40.68        
   5.79795625000E+08; -37.4448      
   5.80420000000E+08; -40.3296      
   5.81044375000E+08; -37.8601      
   5.81668750000E+08; -37.3278      
   5.82293125000E+08; -39.741       
   5.82917500000E+08; -36.5971      
   5.83541875000E+08; -39.3572      
   5.84166250000E+08; -39.5676      
   5.84790625000E+08; -39.6296      
   5.85415000000E+08; -36.856       
   5.86039375000E+08; -38.8814      
   5.86663750000E+08; -38.2814      
   5.87288125000E+08; -37.4038      
   5.87912500000E+08; -39.9444      
   5.88536875000E+08; -37.6226      
   5.89161250000E+08; -39.6895      
   5.89785625000E+08; -37.8656      
   5.90410000000E+08; -39.0249      
   5.91034375000E+08; -39.0406      
   5.91658750000E+08; -37.4873      
   5.92283125000E+08; -37.7373      
   5.92907500000E+08; -39.6236      
   5.93531875000E+08; -35.9177      
   5.94156250000E+08; -38.4839      
   5.94780625000E+08; -37.4358      
   5.95405000000E+08; -36.1017      
   5.96029375000E+08; -35.5533      
   5.96653750000E+08; -34.6234      
   5.97278125000E+08; -34.7784      
   5.97902500000E+08; -34.8093      
   5.98526875000E+08; -31.7147      
   5.99151250000E+08; -32.052       
   5.99775625000E+08; -32.5235      
   6.00400000000E+08; -32.5388      
   6.01024375000E+08; -32.8351      
   6.01648750000E+08; -31.0938      
   6.02273125000E+08; -33.7245      
   6.02897500000E+08; -32.3759      
   6.03521875000E+08; -33.4837      
   6.04146250000E+08; -31.7329      
   6.04770625000E+08; -35.1734      
   6.05395000000E+08; -33.3401      
   6.06019375000E+08; -33.0542      
   6.06643750000E+08; -33.2004      
   6.07268125000E+08; -33.5209      
   6.07892500000E+08; -37.5833      
   6.08516875000E+08; -33.1568      
   6.09141250000E+08; -35.5531      
   6.09765625000E+08; -34.1458      
   6.10390000000E+08; -36.4554      
   6.11014375000E+08; -35.4473      
   6.11638750000E+08; -35.6315      
   6.12263125000E+08; -35.1263      
   6.12887500000E+08; -34.9719      
   6.13511875000E+08; -35.3893      
   6.14136250000E+08; -38.3184      
   6.14760625000E+08; -35.065       
   6.15385000000E+08; -36.4947      
   6.16009375000E+08; -34.8748      
   6.16633750000E+08; -38.1933      
   6.17258125000E+08; -35.8468      
   6.17882500000E+08; -35.5058      
   6.18506875000E+08; -36.8836      
   6.19131250000E+08; -35.4317      
   6.19755625000E+08; -33.8346      
   6.20380000000E+08; -37.3037      
   6.21004375000E+08; -36.7329      
   6.21628750000E+08; -35.0285      
   6.22253125000E+08; -38.0892      
   6.22877500000E+08; -35.6181      
   6.23501875000E+08; -36.349       
   6.24126250000E+08; -34.3156      
   6.24750625000E+08; -37.2069      
   6.25375000000E+08; -36.7208      
   6.25999375000E+08; -38.4862      
   6.26623750000E+08; -34.5825      
   6.27248125000E+08; -37.7976      
   6.27872500000E+08; -35.9713      
   6.28496875000E+08; -37.2877      
   6.29121250000E+08; -38.7668      
   6.29745625000E+08; -37.3826      
   6.30370000000E+08; -38.7437      
   6.30994375000E+08; -37.4143      
   6.31618750000E+08; -44.1919      
   6.32243125000E+08; -36.2826      
   6.32867500000E+08; -40.1152      
   6.33491875000E+08; -34.3473      
   6.34116250000E+08; -42.6321      
   6.34740625000E+08; -37.1603      
   6.35365000000E+08; -38.9967      
   6.35989375000E+08; -41.6595      
   6.36613750000E+08; -34.2702      
   6.37238125000E+08; -40.7281      
   6.37862500000E+08; -37.1009      
   6.38486875000E+08; -41.7577      
   6.39111250000E+08; -37.1282      
   6.39735625000E+08; -35.211       
   6.40360000000E+08; -37.9875      
   6.40984375000E+08; -39.8013      
   6.41608750000E+08; -38.6459      
   6.42233125000E+08; -36.0792      
   6.42857500000E+08; -39.2945      
   6.43481875000E+08; -36.73        
   6.44106250000E+08; -39.474       
   6.44730625000E+08; -41.1885      
   6.45355000000E+08; -37.5213      
   6.45979375000E+08; -34.7293      
   6.46603750000E+08; -40.4413      
   6.47228125000E+08; -38.8822      
   6.47852500000E+08; -38.0266      
   6.48476875000E+08; -36.3597      
   6.49101250000E+08; -34.7791      
   6.49725625000E+08; -37.1096      
   6.50350000000E+08; -39.0547      
   6.50974375000E+08; -36.8578      
   6.51598750000E+08; -35.4842      
   6.52223125000E+08; -35.1402      
   6.52847500000E+08; -39.6784      
   6.53471875000E+08; -39.7085      
   6.54096250000E+08; -38.2822      
   6.54720625000E+08; -37.3475      
   6.55345000000E+08; -37.8444      
   6.55969375000E+08; -37.6503      
   6.56593750000E+08; -39.4161      
   6.57218125000E+08; -38.522       
   6.57842500000E+08; -35.2498      
   6.58466875000E+08; -36.4002      
   6.59091250000E+08; -39.5727      
   6.59715625000E+08; -39.3821      
   6.60340000000E+08; -36.8019      
   6.60964375000E+08; -35.2321      
   6.61588750000E+08; -36.195       
   6.62213125000E+08; -38.5017      
   6.62837500000E+08; -41.8771      
   6.63461875000E+08; -34.4554      
   6.64086250000E+08; -35.1253      
   6.64710625000E+08; -34.4677      
   6.65335000000E+08; -38.7328      
   6.65959375000E+08; -40.704       
   6.66583750000E+08; -35.8501      
   6.67208125000E+08; -34.7509      
   6.67832500000E+08; -36.111       
   6.68456875000E+08; -39.3912      
   6.69081250000E+08; -43.6004      
   6.69705625000E+08; -36.0051      
   6.70330000000E+08; -34.3568      
   6.70954375000E+08; -34.8362      
   6.71578750000E+08; -34.0533      
   6.72203125000E+08; -41.0214      
   6.72827500000E+08; -38.938       
   6.73451875000E+08; -34.9862      
   6.74076250000E+08; -34.8828      
   6.74700625000E+08; -34.6761      
   6.75325000000E+08; -39.1213      
   6.75949375000E+08; -43.1436      
   6.76573750000E+08; -36.3539      
   6.77198125000E+08; -35.3901      
   6.77822500000E+08; -35.6019      
   6.78446875000E+08; -37.7574      
   6.79071250000E+08; -39.5858      
   6.79695625000E+08; -37.8951      
   6.80320000000E+08; -35.8474      
   6.80944375000E+08; -35.9733      
   6.81568750000E+08; -34.5754      
   6.82193125000E+08; -37.7271      
   6.82817500000E+08; -39.1756      
   6.83441875000E+08; -37.9829      
   6.84066250000E+08; -37.0099      
   6.84690625000E+08; -35.1638      
   6.85315000000E+08; -34.7648      
   6.85939375000E+08; -38.9686      
   6.86563750000E+08; -38.8585      
   6.87188125000E+08; -37.2292      
   6.87812500000E+08; -35.7843      
   6.88436875000E+08; -35.1539      
   6.89061250000E+08; -36.3175      
   6.89685625000E+08; -37.3531      
   6.90310000000E+08; -39.9048      
   6.90934375000E+08; -35.8292      
   6.91558750000E+08; -35.3743      
   6.92183125000E+08; -34.5968      
   6.92807500000E+08; -36.4767      
   6.93431875000E+08; -38.9569      
   6.94056250000E+08; -37.7905      
   6.94680625000E+08; -36.3746      
   6.95305000000E+08; -34.4003      
   6.95929375000E+08; -35.8442      
   6.96553750000E+08; -35.6475      
   6.97178125000E+08; -40.035       
   6.97802500000E+08; -37.4151      
   6.98426875000E+08; -35.7197      
   6.99051250000E+08; -34.4392      
   6.99675625000E+08; -35.108       
   7.00300000000E+08; -39.1183      
   7.00924375000E+08; -38.1725      
   7.01548750000E+08; -37.6083      
   7.02173125000E+08; -35.3491      
   7.02797500000E+08; -36.197       
   7.03421875000E+08; -35.4482      
   7.04046250000E+08; -37.0896      
   7.04670625000E+08; -37.67        
   7.05295000000E+08; -36.0202      
   7.05919375000E+08; -37.4702      
   7.06543750000E+08; -34.2317      
   7.07168125000E+08; -37.0918      
   7.07792500000E+08; -39.0241      
   7.08416875000E+08; -36.4579      
   7.09041250000E+08; -37.4757      
   7.09665625000E+08; -35.3163      
   7.10290000000E+08; -36.7391      
   7.10914375000E+08; -36.0056      
   7.11538750000E+08; -38.0201      
   7.12163125000E+08; -37.5801      
   7.12787500000E+08; -35.9284      
   7.13411875000E+08; -35.8902      
   7.14036250000E+08; -35.5892      
   7.14660625000E+08; -35.871       
   7.15285000000E+08; -36.8084      
   7.15909375000E+08; -36.2225      
   7.16533750000E+08; -37.5062      
   7.17158125000E+08; -35.7383      
   7.17782500000E+08; -38.9904      
   7.18406875000E+08; -35.8521      
   7.19031250000E+08; -38.6537      
   7.19655625000E+08; -36.6705      
   7.20280000000E+08; -35.9947      
   7.20904375000E+08; -36.3649      
   7.21528750000E+08; -36.3629      
   7.22153125000E+08; -36.3911      
   7.22777500000E+08; -36.7616      
   7.23401875000E+08; -35.8295      
   7.24026250000E+08; -36.011       
   7.24650625000E+08; -36.8826      
   7.25275000000E+08; -36.9347      
   7.25899375000E+08; -37.2831      
   7.26523750000E+08; -36.1313      
   7.27148125000E+08; -36.39        
   7.27772500000E+08; -37.0739      
   7.28396875000E+08; -35.3704      
   7.29021250000E+08; -36.9717      
   7.29645625000E+08; -37.5832      
   7.30270000000E+08; -37.1205      
   7.30894375000E+08; -36.1201      
   7.31518750000E+08; -36.254       
   7.32143125000E+08; -36.8352      
   7.32767500000E+08; -35.527       
   7.33391875000E+08; -36.7412      
   7.34016250000E+08; -36.1545      
   7.34640625000E+08; -36.3647      
   7.35265000000E+08; -36.2391      
   7.35889375000E+08; -35.9441      
   7.36513750000E+08; -35.9359      
   7.37138125000E+08; -36.002       
   7.37762500000E+08; -35.7527      
   7.38386875000E+08; -35.9799      
   7.39011250000E+08; -37.4366      
   7.39635625000E+08; -36.0761      
   7.40260000000E+08; -35.9442      
   7.40884375000E+08; -35.7944      
   7.41508750000E+08; -35.761       
   7.42133125000E+08; -35.6599      
   7.42757500000E+08; -36.1127      
   7.43381875000E+08; -36.5141      
   7.44006250000E+08; -36.0557      
   7.44630625000E+08; -36.5333      
   7.45255000000E+08; -35.4212      
   7.45879375000E+08; -37.1941      
   7.46503750000E+08; -35.1328      
   7.47128125000E+08; -36.3587      
   7.47752500000E+08; -36.037       
   7.48376875000E+08; -36.1727      
   7.49001250000E+08; -35.8435      
   7.49625625000E+08; -35.4013      
   7.50250000000E+08; -36.5326      
   7.50874375000E+08; -35.9111      
   7.51498750000E+08; -36.1697      
   7.52123125000E+08; -36.2095      
   7.52747500000E+08; -35.8964      
   7.53371875000E+08; -35.3385      
   7.53996250000E+08; -37.097       
   7.54620625000E+08; -36.0073      
   7.55245000000E+08; -35.6282      
   7.55869375000E+08; -36.39        
   7.56493750000E+08; -35.5844      
   7.57118125000E+08; -36.3173      
   7.57742500000E+08; -35.7932      
   7.58366875000E+08; -36.3687      
   7.58991250000E+08; -35.4982      
   7.59615625000E+08; -36.2763      
   7.60240000000E+08; -37.0112      
   7.60864375000E+08; -35.6202      
   7.61488750000E+08; -36.955       
   7.62113125000E+08; -35.1508      
   7.62737500000E+08; -36.0246      
   7.63361875000E+08; -35.3437      
   7.63986250000E+08; -35.99        
   7.64610625000E+08; -35.3887      
   7.65235000000E+08; -35.8166      
   7.65859375000E+08; -35.635       
   7.66483750000E+08; -35.9228      
   7.67108125000E+08; -35.2258      
   7.67732500000E+08; -34.8069      
   7.68356875000E+08; -36.2484      
   7.68981250000E+08; -35.0739      
   7.69605625000E+08; -35.7738      
   7.70230000000E+08; -35.7932      
   7.70854375000E+08; -35.9769      
   7.71478750000E+08; -35.6843      
   7.72103125000E+08; -35.3124      
   7.72727500000E+08; -35.6511      
   7.73351875000E+08; -34.8995      
   7.73976250000E+08; -36.6407      
   7.74600625000E+08; -35.8216      
   7.75225000000E+08; -35.6613      
   7.75849375000E+08; -35.4498      
   7.76473750000E+08; -36.6072      
   7.77098125000E+08; -36.1509      
   7.77722500000E+08; -35.7762      
   7.78346875000E+08; -36.3065      
   7.78971250000E+08; -36.5932      
   7.79595625000E+08; -36.3603      
   7.80220000000E+08; -35.4055      
   7.80844375000E+08; -35.7071      
   7.81468750000E+08; -35.6905      
   7.82093125000E+08; -35.1609      
   7.82717500000E+08; -35.7748      
   7.83341875000E+08; -35.7098      
   7.83966250000E+08; -35.062       
   7.84590625000E+08; -36.6664      
   7.85215000000E+08; -36.592       
   7.85839375000E+08; -35.9449      
   7.86463750000E+08; -36.5808      
   7.87088125000E+08; -36.0052      
   7.87712500000E+08; -36.156       
   7.88336875000E+08; -35.7083      
   7.88961250000E+08; -36.3924      
   7.89585625000E+08; -35.3406      
   7.90210000000E+08; -36.5483      
   7.90834375000E+08; -37.6465      
   7.91458750000E+08; -35.914       
   7.92083125000E+08; -35.5982      
   7.92707500000E+08; -36.7187      
   7.93331875000E+08; -36.1483      
   7.93956250000E+08; -35.6496      
   7.94580625000E+08; -37.6822      
   7.95205000000E+08; -36.0586      
   7.95829375000E+08; -36.7137      
   7.96453750000E+08; -36.8495      
   7.97078125000E+08; -37.6713      
   7.97702500000E+08; -36.5125      
   7.98326875000E+08; -36.0943      
   7.98951250000E+08; -36.465       
   7.99575625000E+08; -37.3597      
   8.00200000000E+08; -36.1163      
   8.00824375000E+08; -35.9722      
   8.01448750000E+08; -36.2853      
   8.02073125000E+08; -36.6957      
   8.02697500000E+08; -36.254       
   8.03321875000E+08; -35.8412      
   8.03946250000E+08; -36.2542      
   8.04570625000E+08; -35.9807      
   8.05195000000E+08; -36.843       
   8.05819375000E+08; -36.5477      
   8.06443750000E+08; -35.8397      
   8.07068125000E+08; -36.7211      
   8.07692500000E+08; -35.933       
   8.08316875000E+08; -36.194       
   8.08941250000E+08; -36.0825      
   8.09565625000E+08; -36.2961      
   8.10190000000E+08; -37.2254      
   8.10814375000E+08; -35.5369      
   8.11438750000E+08; -35.9247      
   8.12063125000E+08; -35.697       
   8.12687500000E+08; -36.4656      
   8.13311875000E+08; -36.9242      
   8.13936250000E+08; -36.1354      
   8.14560625000E+08; -35.9162      
   8.15185000000E+08; -36.0659      
   8.15809375000E+08; -35.9292      
   8.16433750000E+08; -36.4337      
   8.17058125000E+08; -35.581       
   8.17682500000E+08; -36.0933      
   8.18306875000E+08; -36.2686      
   8.18931250000E+08; -35.6888      
   8.19555625000E+08; -36.2271      
   8.20180000000E+08; -35.5806      
   8.20804375000E+08; -35.6939      
   8.21428750000E+08; -35.4695      
   8.22053125000E+08; -36.1699      
   8.22677500000E+08; -36.2372      
   8.23301875000E+08; -35.5481      
   8.23926250000E+08; -35.5087      
   8.24550625000E+08; -35.7873      
   8.25175000000E+08; -36.0224      
   8.25799375000E+08; -34.8632      
   8.26423750000E+08; -35.356       
   8.27048125000E+08; -35.7572      
   8.27672500000E+08; -34.8185      
   8.28296875000E+08; -34.4575      
   8.28921250000E+08; -36.1512      
   8.29545625000E+08; -35.63        
   8.30170000000E+08; -34.7427      
   8.30794375000E+08; -35.0504      
   8.31418750000E+08; -35.4613      
   8.32043125000E+08; -35.6553      
   8.32667500000E+08; -35.3464      
   8.33291875000E+08; -35.8008      
   8.33916250000E+08; -35.3566      
   8.34540625000E+08; -34.6418      
   8.35165000000E+08; -34.7151      
   8.35789375000E+08; -36.0062      
   8.36413750000E+08; -34.8862      
   8.37038125000E+08; -34.8437      
   8.37662500000E+08; -35.5361      
   8.38286875000E+08; -34.4865      
   8.38911250000E+08; -34.6792      
   8.39535625000E+08; -35.0783      
   8.40160000000E+08; -34.9544      
   8.40784375000E+08; -34.3831      
   8.41408750000E+08; -34.7204      
   8.42033125000E+08; -35.5695      
   8.42657500000E+08; -34.353       
   8.43281875000E+08; -34.9237      
   8.43906250000E+08; -35.0243      
   8.44530625000E+08; -34.8514      
   8.45155000000E+08; -35.1677      
   8.45779375000E+08; -34.7557      
   8.46403750000E+08; -35.0198      
   8.47028125000E+08; -34.358       
   8.47652500000E+08; -34.7829      
   8.48276875000E+08; -34.7111      
   8.48901250000E+08; -35.4243      
   8.49525625000E+08; -34.0082      
   8.50150000000E+08; -35.3178      
   8.50774375000E+08; -34.6334      
   8.51398750000E+08; -35.148       
   8.52023125000E+08; -34.2956      
   8.52647500000E+08; -35.1056      
   8.53271875000E+08; -34.843       
   8.53896250000E+08; -34.3569      
   8.54520625000E+08; -35.1587      
   8.55145000000E+08; -34.3801      
   8.55769375000E+08; -34.6701      
   8.56393750000E+08; -34.3509      
   8.57018125000E+08; -35.8013      
   8.57642500000E+08; -34.9649      
   8.58266875000E+08; -33.6766      
   8.58891250000E+08; -34.5967      
   8.59515625000E+08; -35.1111      
   8.60140000000E+08; -33.9159      
   8.60764375000E+08; -34.425       
   8.61388750000E+08; -34.3227      
   8.62013125000E+08; -35.2793      
   8.62637500000E+08; -35.0743      
   8.63261875000E+08; -34.6398      
   8.63886250000E+08; -34.832       
   8.64510625000E+08; -34.535       
   8.65135000000E+08; -34.1644      
   8.65759375000E+08; -34.4498      
   8.66383750000E+08; -34.9191      
   8.67008125000E+08; -34.9679      
   8.67632500000E+08; -34.3175      
   8.68256875000E+08; -35.6024      
   8.68881250000E+08; -34.7736      
   8.69505625000E+08; -35.0566      
   8.70130000000E+08; -34.0436      
   8.70754375000E+08; -34.8235      
   8.71378750000E+08; -34.8885      
   8.72003125000E+08; -34.6532      
   8.72627500000E+08; -34.6813      
   8.73251875000E+08; -34.9777      
   8.73876250000E+08; -35.4809      
   8.74500625000E+08; -34.4172      
   8.75125000000E+08; -34.477       
   8.75749375000E+08; -35.3408      
   8.76373750000E+08; -35.186       
   8.76998125000E+08; -34.6267      
   8.77622500000E+08; -34.419       
   8.78246875000E+08; -34.6249      
   8.78871250000E+08; -35.2698      
   8.79495625000E+08; -35.5186      
   8.80120000000E+08; -33.9417      
   8.80744375000E+08; -34.7848      
   8.81368750000E+08; -35.0697      
   8.81993125000E+08; -34.6951      
   8.82617500000E+08; -34.3884      
   8.83241875000E+08; -35.0567      
   8.83866250000E+08; -35.5362      
   8.84490625000E+08; -35.0486      
   8.85115000000E+08; -34.7239      
   8.85739375000E+08; -34.9682      
   8.86363750000E+08; -35.4935      
   8.86988125000E+08; -33.9033      
   8.87612500000E+08; -34.8366      
   8.88236875000E+08; -35.4502      
   8.88861250000E+08; -35.0032      
   8.89485625000E+08; -34.7009      
   8.90110000000E+08; -34.6556      
   8.90734375000E+08; -34.9609      
   8.91358750000E+08; -34.4006      
   8.91983125000E+08; -35.1073      
   8.92607500000E+08; -34.7043      
   8.93231875000E+08; -34.928       
   8.93856250000E+08; -35.7786      
   8.94480625000E+08; -33.7654      
   8.95105000000E+08; -34.4674      
   8.95729375000E+08; -35.4487      
   8.96353750000E+08; -35.0807      
   8.96978125000E+08; -34.8214      
   8.97602500000E+08; -34.3442      
   8.98226875000E+08; -35.0497      
   8.98851250000E+08; -34.9498      
   8.99475625000E+08; -34.7901      
   9.00100000000E+08; -34.0974      
   9.00724375000E+08; -34.2427      
   9.01348750000E+08; -35.5355      
   9.01973125000E+08; -33.9876      
   9.02597500000E+08; -34.2355      
   9.03221875000E+08; -34.3067      
   9.03846250000E+08; -34.9755      
   9.04470625000E+08; -34.7348      
   9.05095000000E+08; -34.0215      
   9.05719375000E+08; -34.1599      
   9.06343750000E+08; -34.7566      
   9.06968125000E+08; -33.9224      
   9.07592500000E+08; -34.1963      
   9.08216875000E+08; -34.8057      
   9.08841250000E+08; -33.9603      
   9.09465625000E+08; -34.5898      
   9.10090000000E+08; -34.1923      
   9.10714375000E+08; -33.8465      
   9.11338750000E+08; -34.7272      
   9.11963125000E+08; -35.188       
   9.12587500000E+08; -34.892       
   9.13211875000E+08; -34.9769      
   9.13836250000E+08; -34.6306      
   9.14460625000E+08; -33.8311      
   9.15085000000E+08; -33.5922      
   9.15709375000E+08; -33.9835      
   9.16333750000E+08; -33.7578      
   9.16958125000E+08; -35.0783      
   9.17582500000E+08; -34.0345      
   9.18206875000E+08; -33.8217      
   9.18831250000E+08; -34.4463      
   9.19455625000E+08; -34.3167      
   9.20080000000E+08; -34.3469      
   9.20704375000E+08; -34.1335      
   9.21328750000E+08; -34.4449      
   9.21953125000E+08; -33.8327      
   9.22577500000E+08; -33.5424      
   9.23201875000E+08; -33.7079      
   9.23826250000E+08; -33.9911      
   9.24450625000E+08; -34.2518      
   9.25075000000E+08; -33.3687      
   9.25699375000E+08; -35.0097      
   9.26323750000E+08; -33.7222      
   9.26948125000E+08; -34.5235      
   9.27572500000E+08; -34.01        
   9.28196875000E+08; -34.3626      
   9.28821250000E+08; -34.2292      
   9.29445625000E+08; -33.8874      
   9.30070000000E+08; -33.6841      
   9.30694375000E+08; -33.9572      
   9.31318750000E+08; -34.3907      
   9.31943125000E+08; -33.7125      
   9.32567500000E+08; -33.667       
   9.33191875000E+08; -33.5771      
   9.33816250000E+08; -34.2293      
   9.34440625000E+08; -33.9514      
   9.35065000000E+08; -33.8869      
   9.35689375000E+08; -34.1097      
   9.36313750000E+08; -34.1697      
   9.36938125000E+08; -33.6188      
   9.37562500000E+08; -33.8886      
   9.38186875000E+08; -33.8482      
   9.38811250000E+08; -33.6628      
   9.39435625000E+08; -33.4275      
   9.40060000000E+08; -34.4352      
   9.40684375000E+08; -33.6203      
   9.41308750000E+08; -34.0401      
   9.41933125000E+08; -33.8031      
   9.42557500000E+08; -33.677       
   9.43181875000E+08; -33.3327      
   9.43806250000E+08; -33.6155      
   9.44430625000E+08; -33.6022      
   9.45055000000E+08; -33.633       
   9.45679375000E+08; -33.7952      
   9.46303750000E+08; -33.9816      
   9.46928125000E+08; -34.0005      
   9.47552500000E+08; -33.8297      
   9.48176875000E+08; -33.4282      
   9.48801250000E+08; -33.9282      
   9.49425625000E+08; -33.8702      
   9.50050000000E+08; -33.4709      
   9.50674375000E+08; -33.5858      
   9.51298750000E+08; -34.1192      
   9.51923125000E+08; -33.7746      
   9.52547500000E+08; -33.5972      
   9.53171875000E+08; -34.0505      
   9.53796250000E+08; -33.5305      
   9.54420625000E+08; -34.2833      
   9.55045000000E+08; -33.2471      
   9.55669375000E+08; -33.8471      
   9.56293750000E+08; -33.7128      
   9.56918125000E+08; -34.0232      
   9.57542500000E+08; -33.325       
   9.58166875000E+08; -33.7998      
   9.58791250000E+08; -33.9342      
   9.59415625000E+08; -34.0115      
   9.60040000000E+08; -33.0721      
   9.60664375000E+08; -33.9437      
   9.61288750000E+08; -33.1907      
   9.61913125000E+08; -33.3694      
   9.62537500000E+08; -33.7065      
   9.63161875000E+08; -33.1282      
   9.63786250000E+08; -33.3235      
   9.64410625000E+08; -33.3206      
   9.65035000000E+08; -33.8023      
   9.65659375000E+08; -33.099       
   9.66283750000E+08; -33.5792      
   9.66908125000E+08; -32.7347      
   9.67532500000E+08; -32.8916      
   9.68156875000E+08; -33.165       
   9.68781250000E+08; -33.1737      
   9.69405625000E+08; -33.3285      
   9.70030000000E+08; -33.0953      
   9.70654375000E+08; -33.1509      
   9.71278750000E+08; -33.0252      
   9.71903125000E+08; -33.1663      
   9.72527500000E+08; -33.4305      
   9.73151875000E+08; -32.6693      
   9.73776250000E+08; -33.4569      
   9.74400625000E+08; -33.1826      
   9.75025000000E+08; -33.0587      
   9.75649375000E+08; -32.755       
   9.76273750000E+08; -33.0463      
   9.76898125000E+08; -33.1888      
   9.77522500000E+08; -32.7007      
   9.78146875000E+08; -32.9557      
   9.78771250000E+08; -32.9196      
   9.79395625000E+08; -32.6613      
   9.80020000000E+08; -33.5282      
   9.80644375000E+08; -32.9398      
   9.81268750000E+08; -32.6051      
   9.81893125000E+08; -33.1434      
   9.82517500000E+08; -33.1244      
   9.83141875000E+08; -33.0759      
   9.83766250000E+08; -32.6509      
   9.84390625000E+08; -32.8362      
   9.85015000000E+08; -32.5242      
   9.85639375000E+08; -33.0669      
   9.86263750000E+08; -33.2954      
   9.86888125000E+08; -33.1202      
   9.87512500000E+08; -33.0593      
   9.88136875000E+08; -32.7666      
   9.88761250000E+08; -32.8251      
   9.89385625000E+08; -32.6269      
   9.90010000000E+08; -33.1728      
   9.90634375000E+08; -33.0436      
   9.91258750000E+08; -32.7063      
   9.91883125000E+08; -32.6783      
   9.92507500000E+08; -32.9162      
   9.93131875000E+08; -33.1643      
   9.93756250000E+08; -32.6708      
   9.94380625000E+08; -32.7974      
   9.95005000000E+08; -32.8512      
   9.95629375000E+08; -33.1734      
   9.96253750000E+08; -32.868       
   9.96878125000E+08; -33.0765      
   9.97502500000E+08; -33.8017      
   9.98126875000E+08; -32.6343      
   9.98751250000E+08; -32.9482      
   9.99375625000E+08; -33.127       
   1.00000000000E+09; -32.9514      
