
  ZVRE, 2.05

  stimulus-start        ; stimulus-stop       ; stimulus-unit       ; nof-points; parameter-type; impedance-ohm
  1.00000000000E+06     ; 1.00000000000E+09   ; Hz                  ; 1601      ; S21           ; 50        

  conversion            ; time-domain         ; data-format         ; param-unit; smoothing     ; trace-math
  S                     ; none                ; MAGNITUDE           ; dB        ; none          ; none

  sweep-mode-type       ; notlinear-meas-mode 
  FUNDAMENTAL           ; none                


  freq              ;  S21          
   1.00000000000E+06; -16.516       
   1.62437500000E+06; -30.6249      
   2.24875000000E+06; -22.7572      
   2.87312500000E+06; -33.5727      
   3.49750000000E+06; -33.6315      
   4.12187500000E+06; -37.0552      
   4.74625000000E+06; -38.9418      
   5.37062500000E+06; -33.1861      
   5.99500000000E+06; -32.7273      
   6.61937500000E+06; -32.3315      
   7.24375000000E+06; -34.5379      
   7.86812500000E+06; -44.0171      
   8.49250000000E+06; -48.506       
   9.11687500000E+06; -34.6907      
   9.74125000000E+06; -36.7824      
   1.03656250000E+07; -36.5296      
   1.09900000000E+07; -37.9816      
   1.16143750000E+07; -32.2497      
   1.22387500000E+07; -38.211       
   1.28631250000E+07; -41.8128      
   1.34875000000E+07; -36.3889      
   1.41118750000E+07; -34.3295      
   1.47362500000E+07; -41.9827      
   1.53606250000E+07; -52.6997      
   1.59850000000E+07; -35.4774      
   1.66093750000E+07; -44.6515      
   1.72337500000E+07; -56.2649      
   1.78581250000E+07; -47.6928      
   1.84825000000E+07; -42.6791      
   1.91068750000E+07; -44.4946      
   1.97312500000E+07; -40.9108      
   2.03556250000E+07; -37.2721      
   2.09800000000E+07; -44.1127      
   2.16043750000E+07; -45.6134      
   2.22287500000E+07; -49.0068      
   2.28531250000E+07; -40.6108      
   2.34775000000E+07; -44.0645      
   2.41018750000E+07; -44.7496      
   2.47262500000E+07; -42.344       
   2.53506250000E+07; -46.7528      
   2.59750000000E+07; -47.102       
   2.65993750000E+07; -38.9578      
   2.72237500000E+07; -44.7183      
   2.78481250000E+07; -47.2263      
   2.84725000000E+07; -41.2549      
   2.90968750000E+07; -47.0837      
   2.97212500000E+07; -48.5476      
   3.03456250000E+07; -47.8887      
   3.09700000000E+07; -38.9742      
   3.15943750000E+07; -40.4635      
   3.22187500000E+07; -49.1608      
   3.28431250000E+07; -43.213       
   3.34675000000E+07; -41.9575      
   3.40918750000E+07; -36.1324      
   3.47162500000E+07; -43.9665      
   3.53406250000E+07; -44.2545      
   3.59650000000E+07; -45.553       
   3.65893750000E+07; -47.3032      
   3.72137500000E+07; -40.6797      
   3.78381250000E+07; -50.8404      
   3.84625000000E+07; -41.2463      
   3.90868750000E+07; -41.0466      
   3.97112500000E+07; -49.6547      
   4.03356250000E+07; -43.2341      
   4.09600000000E+07; -24.2466      
   4.15843750000E+07; -37.4116      
   4.22087500000E+07; -42.2916      
   4.28331250000E+07; -56.4396      
   4.34575000000E+07; -43.2127      
   4.40818750000E+07; -41.9898      
   4.47062500000E+07; -41.8777      
   4.53306250000E+07; -40.7372      
   4.59550000000E+07; -36.0944      
   4.65793750000E+07; -44.5995      
   4.72037500000E+07; -42.7492      
   4.78281250000E+07; -39.2793      
   4.84525000000E+07; -38.0193      
   4.90768750000E+07; -40.9716      
   4.97012500000E+07; -39.9357      
   5.03256250000E+07; -40.6985      
   5.09500000000E+07; -37.7343      
   5.15743750000E+07; -39.6495      
   5.21987500000E+07; -39.5465      
   5.28231250000E+07; -39.7842      
   5.34475000000E+07; -39.8702      
   5.40718750000E+07; -41.1667      
   5.46962500000E+07; -42.9744      
   5.53206250000E+07; -40.701       
   5.59450000000E+07; -43.1943      
   5.65693750000E+07; -39.0816      
   5.71937500000E+07; -40.7849      
   5.78181250000E+07; -38.6454      
   5.84425000000E+07; -40.0623      
   5.90668750000E+07; -41.2405      
   5.96912500000E+07; -41.2441      
   6.03156250000E+07; -39.2435      
   6.09400000000E+07; -41.2088      
   6.15643750000E+07; -40.4669      
   6.21887500000E+07; -44.5123      
   6.28131250000E+07; -36.8551      
   6.34375000000E+07; -39.3925      
   6.40618750000E+07; -38.8479      
   6.46862500000E+07; -37.4696      
   6.53106250000E+07; -39.3387      
   6.59350000000E+07; -43.6507      
   6.65593750000E+07; -36.509       
   6.71837500000E+07; -40.0783      
   6.78081250000E+07; -40.9037      
   6.84325000000E+07; -38.0861      
   6.90568750000E+07; -42.4652      
   6.96812500000E+07; -38.8462      
   7.03056250000E+07; -38.341       
   7.09300000000E+07; -39.6848      
   7.15543750000E+07; -39.7459      
   7.21787500000E+07; -40.1895      
   7.28031250000E+07; -36.5047      
   7.34275000000E+07; -38.8861      
   7.40518750000E+07; -38.2614      
   7.46762500000E+07; -39.9021      
   7.53006250000E+07; -41.0262      
   7.59250000000E+07; -39.5125      
   7.65493750000E+07; -38.0404      
   7.71737500000E+07; -41.305       
   7.77981250000E+07; -39.957       
   7.84225000000E+07; -38.3841      
   7.90468750000E+07; -40.0892      
   7.96712500000E+07; -39.3122      
   8.02956250000E+07; -42.501       
   8.09200000000E+07; -36.3458      
   8.15443750000E+07; -37.4671      
   8.21687500000E+07; -42.4271      
   8.27931250000E+07; -39.3789      
   8.34175000000E+07; -41.9739      
   8.40418750000E+07; -37.0972      
   8.46662500000E+07; -40.5075      
   8.52906250000E+07; -40.5809      
   8.59150000000E+07; -40.095       
   8.65393750000E+07; -38.8482      
   8.71637500000E+07; -40.5879      
   8.77881250000E+07; -38.2776      
   8.84125000000E+07; -38.6259      
   8.90368750000E+07; -37.4244      
   8.96612500000E+07; -39.3089      
   9.02856250000E+07; -36.0906      
   9.09100000000E+07; -40.7638      
   9.15343750000E+07; -44.6954      
   9.21587500000E+07; -39.4084      
   9.27831250000E+07; -43.9732      
   9.34075000000E+07; -38.4448      
   9.40318750000E+07; -39.1035      
   9.46562500000E+07; -42.2925      
   9.52806250000E+07; -40.2699      
   9.59050000000E+07; -37.1235      
   9.65293750000E+07; -39.5619      
   9.71537500000E+07; -39.5596      
   9.77781250000E+07; -37.3876      
   9.84025000000E+07; -38.8331      
   9.90268750000E+07; -39.0818      
   9.96512500000E+07; -39.3253      
   1.00275625000E+08; -38.5368      
   1.00900000000E+08; -41.6877      
   1.01524375000E+08; -38.9253      
   1.02148750000E+08; -37.0448      
   1.02773125000E+08; -40.1654      
   1.03397500000E+08; -39.5981      
   1.04021875000E+08; -37.4596      
   1.04646250000E+08; -40.7694      
   1.05270625000E+08; -40.4401      
   1.05895000000E+08; -38.3047      
   1.06519375000E+08; -39.5884      
   1.07143750000E+08; -38.1504      
   1.07768125000E+08; -37.4296      
   1.08392500000E+08; -38.8503      
   1.09016875000E+08; -39.2269      
   1.09641250000E+08; -39.4865      
   1.10265625000E+08; -40.1234      
   1.10890000000E+08; -38.8686      
   1.11514375000E+08; -39.7183      
   1.12138750000E+08; -39.1694      
   1.12763125000E+08; -38.4417      
   1.13387500000E+08; -36.8496      
   1.14011875000E+08; -38.4908      
   1.14636250000E+08; -38.3148      
   1.15260625000E+08; -38.7893      
   1.15885000000E+08; -39.5293      
   1.16509375000E+08; -39.0792      
   1.17133750000E+08; -39.3185      
   1.17758125000E+08; -38.6167      
   1.18382500000E+08; -40.9114      
   1.19006875000E+08; -41.8568      
   1.19631250000E+08; -39.7873      
   1.20255625000E+08; -40.3974      
   1.20880000000E+08; -40.3313      
   1.21504375000E+08; -39.4803      
   1.22128750000E+08; -41.1019      
   1.22753125000E+08; -39.0324      
   1.23377500000E+08; -39.7491      
   1.24001875000E+08; -40.2929      
   1.24626250000E+08; -39.0409      
   1.25250625000E+08; -39.1002      
   1.25875000000E+08; -38.8087      
   1.26499375000E+08; -37.2542      
   1.27123750000E+08; -40.1972      
   1.27748125000E+08; -41.5177      
   1.28372500000E+08; -39.0618      
   1.28996875000E+08; -37.124       
   1.29621250000E+08; -39.4364      
   1.30245625000E+08; -39.0975      
   1.30870000000E+08; -39.3899      
   1.31494375000E+08; -40.2182      
   1.32118750000E+08; -37.8631      
   1.32743125000E+08; -40.0004      
   1.33367500000E+08; -37.6817      
   1.33991875000E+08; -38.9402      
   1.34616250000E+08; -40.5497      
   1.35240625000E+08; -40.0557      
   1.35865000000E+08; -38.6327      
   1.36489375000E+08; -37.5151      
   1.37113750000E+08; -37.708       
   1.37738125000E+08; -38.3193      
   1.38362500000E+08; -39.3895      
   1.38986875000E+08; -40.7448      
   1.39611250000E+08; -38.9359      
   1.40235625000E+08; -37.8242      
   1.40860000000E+08; -37.0258      
   1.41484375000E+08; -40.5712      
   1.42108750000E+08; -40.3359      
   1.42733125000E+08; -38.9981      
   1.43357500000E+08; -39.4407      
   1.43981875000E+08; -40.1049      
   1.44606250000E+08; -38.4614      
   1.45230625000E+08; -40.6248      
   1.45855000000E+08; -38.9568      
   1.46479375000E+08; -39.7994      
   1.47103750000E+08; -39.2201      
   1.47728125000E+08; -37.8617      
   1.48352500000E+08; -40.0723      
   1.48976875000E+08; -40.754       
   1.49601250000E+08; -40.4713      
   1.50225625000E+08; -39.0489      
   1.50850000000E+08; -39.7766      
   1.51474375000E+08; -38.5854      
   1.52098750000E+08; -38.9189      
   1.52723125000E+08; -38.8273      
   1.53347500000E+08; -38.0409      
   1.53971875000E+08; -40.2324      
   1.54596250000E+08; -39.9805      
   1.55220625000E+08; -38.292       
   1.55845000000E+08; -39.5612      
   1.56469375000E+08; -39.0253      
   1.57093750000E+08; -40.6381      
   1.57718125000E+08; -39.0046      
   1.58342500000E+08; -39.2915      
   1.58966875000E+08; -40.3079      
   1.59591250000E+08; -39.1542      
   1.60215625000E+08; -39.6884      
   1.60840000000E+08; -39.0432      
   1.61464375000E+08; -39.1439      
   1.62088750000E+08; -39.8311      
   1.62713125000E+08; -38.1424      
   1.63337500000E+08; -38.8238      
   1.63961875000E+08; -38.9182      
   1.64586250000E+08; -39.0733      
   1.65210625000E+08; -38.9698      
   1.65835000000E+08; -37.6821      
   1.66459375000E+08; -39.1111      
   1.67083750000E+08; -39.6999      
   1.67708125000E+08; -37.5257      
   1.68332500000E+08; -37.3778      
   1.68956875000E+08; -40.7101      
   1.69581250000E+08; -40.6083      
   1.70205625000E+08; -39.4498      
   1.70830000000E+08; -36.5513      
   1.71454375000E+08; -38.8199      
   1.72078750000E+08; -38.2444      
   1.72703125000E+08; -37.6067      
   1.73327500000E+08; -40.8169      
   1.73951875000E+08; -41.4327      
   1.74576250000E+08; -38.4953      
   1.75200625000E+08; -41.7731      
   1.75825000000E+08; -40.5153      
   1.76449375000E+08; -40.0647      
   1.77073750000E+08; -38.355       
   1.77698125000E+08; -38.6814      
   1.78322500000E+08; -37.6199      
   1.78946875000E+08; -39.8731      
   1.79571250000E+08; -39.9196      
   1.80195625000E+08; -39.6176      
   1.80820000000E+08; -39.9809      
   1.81444375000E+08; -38.5853      
   1.82068750000E+08; -38.9142      
   1.82693125000E+08; -39.9735      
   1.83317500000E+08; -38.4404      
   1.83941875000E+08; -40.4363      
   1.84566250000E+08; -38.7097      
   1.85190625000E+08; -40.5365      
   1.85815000000E+08; -38.846       
   1.86439375000E+08; -40.2597      
   1.87063750000E+08; -38.5028      
   1.87688125000E+08; -39.4478      
   1.88312500000E+08; -40.3677      
   1.88936875000E+08; -40.1423      
   1.89561250000E+08; -39.3725      
   1.90185625000E+08; -40.0476      
   1.90810000000E+08; -39.8447      
   1.91434375000E+08; -38.5096      
   1.92058750000E+08; -39.1259      
   1.92683125000E+08; -38.9113      
   1.93307500000E+08; -38.9377      
   1.93931875000E+08; -40.7432      
   1.94556250000E+08; -38.9031      
   1.95180625000E+08; -40.381       
   1.95805000000E+08; -40.3754      
   1.96429375000E+08; -40.0104      
   1.97053750000E+08; -37.7965      
   1.97678125000E+08; -38.3173      
   1.98302500000E+08; -37.932       
   1.98926875000E+08; -39.0109      
   1.99551250000E+08; -39.3015      
   2.00175625000E+08; -37.8447      
   2.00800000000E+08; -37.6132      
   2.01424375000E+08; -37.919       
   2.02048750000E+08; -37.2924      
   2.02673125000E+08; -37.7158      
   2.03297500000E+08; -37.9339      
   2.03921875000E+08; -37.9697      
   2.04546250000E+08; -38.6769      
   2.05170625000E+08; -37.013       
   2.05795000000E+08; -37.2235      
   2.06419375000E+08; -37.6513      
   2.07043750000E+08; -38.9861      
   2.07668125000E+08; -38.9346      
   2.08292500000E+08; -40.4067      
   2.08916875000E+08; -39.2686      
   2.09541250000E+08; -38.6467      
   2.10165625000E+08; -38.6286      
   2.10790000000E+08; -38.6654      
   2.11414375000E+08; -38.1761      
   2.12038750000E+08; -38.2115      
   2.12663125000E+08; -38.2436      
   2.13287500000E+08; -39.372       
   2.13911875000E+08; -38.1728      
   2.14536250000E+08; -38.8855      
   2.15160625000E+08; -39.6132      
   2.15785000000E+08; -38.8662      
   2.16409375000E+08; -38.3717      
   2.17033750000E+08; -38.5093      
   2.17658125000E+08; -38.0467      
   2.18282500000E+08; -37.2387      
   2.18906875000E+08; -37.5955      
   2.19531250000E+08; -38.1803      
   2.20155625000E+08; -39.6721      
   2.20780000000E+08; -38.3629      
   2.21404375000E+08; -38.2278      
   2.22028750000E+08; -37.6346      
   2.22653125000E+08; -39.2999      
   2.23277500000E+08; -38.7437      
   2.23901875000E+08; -39.433       
   2.24526250000E+08; -38.4529      
   2.25150625000E+08; -37.7504      
   2.25775000000E+08; -38.3557      
   2.26399375000E+08; -38.9759      
   2.27023750000E+08; -38.2493      
   2.27648125000E+08; -38.0964      
   2.28272500000E+08; -38.6566      
   2.28896875000E+08; -39.1881      
   2.29521250000E+08; -38.4211      
   2.30145625000E+08; -38.867       
   2.30770000000E+08; -38.8574      
   2.31394375000E+08; -38.2722      
   2.32018750000E+08; -38.7612      
   2.32643125000E+08; -37.7288      
   2.33267500000E+08; -38.4926      
   2.33891875000E+08; -39.1321      
   2.34516250000E+08; -39.0105      
   2.35140625000E+08; -38.7018      
   2.35765000000E+08; -37.7543      
   2.36389375000E+08; -38.8783      
   2.37013750000E+08; -39.0511      
   2.37638125000E+08; -38.4668      
   2.38262500000E+08; -38.6216      
   2.38886875000E+08; -38.6157      
   2.39511250000E+08; -39.1647      
   2.40135625000E+08; -38.0804      
   2.40760000000E+08; -37.9655      
   2.41384375000E+08; -38.4965      
   2.42008750000E+08; -39.0637      
   2.42633125000E+08; -38.1019      
   2.43257500000E+08; -38.3175      
   2.43881875000E+08; -38.4882      
   2.44506250000E+08; -38.5221      
   2.45130625000E+08; -40.0027      
   2.45755000000E+08; -39.334       
   2.46379375000E+08; -38.9885      
   2.47003750000E+08; -39.0503      
   2.47628125000E+08; -38.657       
   2.48252500000E+08; -37.7814      
   2.48876875000E+08; -39.1812      
   2.49501250000E+08; -37.893       
   2.50125625000E+08; -39.0301      
   2.50750000000E+08; -38.8918      
   2.51374375000E+08; -38.2112      
   2.51998750000E+08; -37.6948      
   2.52623125000E+08; -38.263       
   2.53247500000E+08; -37.7368      
   2.53871875000E+08; -37.4857      
   2.54496250000E+08; -39.6061      
   2.55120625000E+08; -38.7735      
   2.55745000000E+08; -38.1657      
   2.56369375000E+08; -39.3619      
   2.56993750000E+08; -39.2759      
   2.57618125000E+08; -37.7959      
   2.58242500000E+08; -38.321       
   2.58866875000E+08; -39.1451      
   2.59491250000E+08; -37.7048      
   2.60115625000E+08; -40.3292      
   2.60740000000E+08; -39.9571      
   2.61364375000E+08; -40.1622      
   2.61988750000E+08; -40.2176      
   2.62613125000E+08; -39.6357      
   2.63237500000E+08; -39.3024      
   2.63861875000E+08; -40.0832      
   2.64486250000E+08; -39.1319      
   2.65110625000E+08; -39.6297      
   2.65735000000E+08; -40.5088      
   2.66359375000E+08; -38.9944      
   2.66983750000E+08; -39.4241      
   2.67608125000E+08; -38.9697      
   2.68232500000E+08; -38.3415      
   2.68856875000E+08; -40.0004      
   2.69481250000E+08; -37.007       
   2.70105625000E+08; -39.2473      
   2.70730000000E+08; -39.5709      
   2.71354375000E+08; -38.5857      
   2.71978750000E+08; -38.4876      
   2.72603125000E+08; -37.8218      
   2.73227500000E+08; -37.5278      
   2.73851875000E+08; -38.5378      
   2.74476250000E+08; -39.4954      
   2.75100625000E+08; -38.0291      
   2.75725000000E+08; -38.8588      
   2.76349375000E+08; -39.1538      
   2.76973750000E+08; -38.8508      
   2.77598125000E+08; -39.5144      
   2.78222500000E+08; -38.535       
   2.78846875000E+08; -38.718       
   2.79471250000E+08; -37.8334      
   2.80095625000E+08; -38.6315      
   2.80720000000E+08; -38.5206      
   2.81344375000E+08; -38.4562      
   2.81968750000E+08; -38.7691      
   2.82593125000E+08; -38.108       
   2.83217500000E+08; -38.1857      
   2.83841875000E+08; -38.5602      
   2.84466250000E+08; -38.8177      
   2.85090625000E+08; -38.0437      
   2.85715000000E+08; -38.3963      
   2.86339375000E+08; -38.084       
   2.86963750000E+08; -37.2607      
   2.87588125000E+08; -37.4736      
   2.88212500000E+08; -37.7156      
   2.88836875000E+08; -37.8281      
   2.89461250000E+08; -37.3964      
   2.90085625000E+08; -37.6823      
   2.90710000000E+08; -36.0609      
   2.91334375000E+08; -37.6773      
   2.91958750000E+08; -37.4436      
   2.92583125000E+08; -39.1375      
   2.93207500000E+08; -37.9317      
   2.93831875000E+08; -38.1624      
   2.94456250000E+08; -37.7314      
   2.95080625000E+08; -37.7323      
   2.95705000000E+08; -39.1487      
   2.96329375000E+08; -37.2707      
   2.96953750000E+08; -38.7201      
   2.97578125000E+08; -37.7617      
   2.98202500000E+08; -38.8111      
   2.98826875000E+08; -38.2485      
   2.99451250000E+08; -37.3585      
   3.00075625000E+08; -38.5421      
   3.00700000000E+08; -38.7201      
   3.01324375000E+08; -39.275       
   3.01948750000E+08; -39.4028      
   3.02573125000E+08; -38.3103      
   3.03197500000E+08; -38.5274      
   3.03821875000E+08; -37.8272      
   3.04446250000E+08; -38.1129      
   3.05070625000E+08; -38.3003      
   3.05695000000E+08; -39.0789      
   3.06319375000E+08; -38.4211      
   3.06943750000E+08; -37.7902      
   3.07568125000E+08; -38.8541      
   3.08192500000E+08; -38.2152      
   3.08816875000E+08; -37.4173      
   3.09441250000E+08; -38.9119      
   3.10065625000E+08; -39.5293      
   3.10690000000E+08; -38.3561      
   3.11314375000E+08; -37.3974      
   3.11938750000E+08; -37.6145      
   3.12563125000E+08; -39.1451      
   3.13187500000E+08; -37.5452      
   3.13811875000E+08; -39.6224      
   3.14436250000E+08; -38.634       
   3.15060625000E+08; -36.4959      
   3.15685000000E+08; -36.9826      
   3.16309375000E+08; -37.6848      
   3.16933750000E+08; -38.0016      
   3.17558125000E+08; -37.5104      
   3.18182500000E+08; -36.879       
   3.18806875000E+08; -37.6275      
   3.19431250000E+08; -37.6304      
   3.20055625000E+08; -36.8182      
   3.20680000000E+08; -37.3349      
   3.21304375000E+08; -37.664       
   3.21928750000E+08; -37.6126      
   3.22553125000E+08; -36.6291      
   3.23177500000E+08; -36.8891      
   3.23801875000E+08; -36.455       
   3.24426250000E+08; -37.1232      
   3.25050625000E+08; -38.5675      
   3.25675000000E+08; -38.4529      
   3.26299375000E+08; -37.553       
   3.26923750000E+08; -38.717       
   3.27548125000E+08; -38.2988      
   3.28172500000E+08; -39.8606      
   3.28796875000E+08; -39.1361      
   3.29421250000E+08; -38.8296      
   3.30045625000E+08; -39.7418      
   3.30670000000E+08; -38.5181      
   3.31294375000E+08; -40.1781      
   3.31918750000E+08; -37.7555      
   3.32543125000E+08; -38.7525      
   3.33167500000E+08; -38.1377      
   3.33791875000E+08; -37.823       
   3.34416250000E+08; -37.741       
   3.35040625000E+08; -38.7258      
   3.35665000000E+08; -38.4587      
   3.36289375000E+08; -38.0253      
   3.36913750000E+08; -37.6386      
   3.37538125000E+08; -37.361       
   3.38162500000E+08; -38.4012      
   3.38786875000E+08; -38.5807      
   3.39411250000E+08; -38.6689      
   3.40035625000E+08; -39.2367      
   3.40660000000E+08; -38.6859      
   3.41284375000E+08; -38.6693      
   3.41908750000E+08; -38.9881      
   3.42533125000E+08; -38.7221      
   3.43157500000E+08; -39.0569      
   3.43781875000E+08; -39.868       
   3.44406250000E+08; -37.0562      
   3.45030625000E+08; -37.4806      
   3.45655000000E+08; -38.5029      
   3.46279375000E+08; -39.371       
   3.46903750000E+08; -39.2411      
   3.47528125000E+08; -37.8895      
   3.48152500000E+08; -36.9528      
   3.48776875000E+08; -37.0961      
   3.49401250000E+08; -38.7824      
   3.50025625000E+08; -37.623       
   3.50650000000E+08; -35.6456      
   3.51274375000E+08; -36.7862      
   3.51898750000E+08; -37.003       
   3.52523125000E+08; -38.1935      
   3.53147500000E+08; -35.8088      
   3.53771875000E+08; -37.0761      
   3.54396250000E+08; -37.0711      
   3.55020625000E+08; -35.9758      
   3.55645000000E+08; -37.3471      
   3.56269375000E+08; -37.1646      
   3.56893750000E+08; -37.8324      
   3.57518125000E+08; -37.7966      
   3.58142500000E+08; -37.8081      
   3.58766875000E+08; -37.4375      
   3.59391250000E+08; -38.26        
   3.60015625000E+08; -38.2196      
   3.60640000000E+08; -38.9687      
   3.61264375000E+08; -38.1405      
   3.61888750000E+08; -38.6829      
   3.62513125000E+08; -38.6125      
   3.63137500000E+08; -38.8195      
   3.63761875000E+08; -37.1921      
   3.64386250000E+08; -38.0497      
   3.65010625000E+08; -37.5955      
   3.65635000000E+08; -37.5309      
   3.66259375000E+08; -37.2388      
   3.66883750000E+08; -36.8848      
   3.67508125000E+08; -36.4499      
   3.68132500000E+08; -37.3067      
   3.68756875000E+08; -36.1597      
   3.69381250000E+08; -36.2338      
   3.70005625000E+08; -35.5417      
   3.70630000000E+08; -37.9154      
   3.71254375000E+08; -36.8425      
   3.71878750000E+08; -36.6044      
   3.72503125000E+08; -37.593       
   3.73127500000E+08; -37.4705      
   3.73751875000E+08; -37.5844      
   3.74376250000E+08; -39.4756      
   3.75000625000E+08; -38.9119      
   3.75625000000E+08; -39.268       
   3.76249375000E+08; -38.657       
   3.76873750000E+08; -37.2405      
   3.77498125000E+08; -37.2841      
   3.78122500000E+08; -37.3769      
   3.78746875000E+08; -40.0458      
   3.79371250000E+08; -39.1285      
   3.79995625000E+08; -35.7615      
   3.80620000000E+08; -36.6057      
   3.81244375000E+08; -37.2734      
   3.81868750000E+08; -36.9478      
   3.82493125000E+08; -36.2458      
   3.83117500000E+08; -34.7413      
   3.83741875000E+08; -35.9229      
   3.84366250000E+08; -36.0597      
   3.84990625000E+08; -34.9968      
   3.85615000000E+08; -36.4243      
   3.86239375000E+08; -34.2441      
   3.86863750000E+08; -35.6363      
   3.87488125000E+08; -36.0357      
   3.88112500000E+08; -37.2559      
   3.88736875000E+08; -37.1339      
   3.89361250000E+08; -36.6958      
   3.89985625000E+08; -37.9851      
   3.90610000000E+08; -40.9578      
   3.91234375000E+08; -36.4184      
   3.91858750000E+08; -35.0216      
   3.92483125000E+08; -34.058       
   3.93107500000E+08; -34.3669      
   3.93731875000E+08; -35.0998      
   3.94356250000E+08; -36.6583      
   3.94980625000E+08; -35.3228      
   3.95605000000E+08; -34.1662      
   3.96229375000E+08; -33.0226      
   3.96853750000E+08; -36.7382      
   3.97478125000E+08; -39.0064      
   3.98102500000E+08; -44.5836      
   3.98726875000E+08; -40.1875      
   3.99351250000E+08; -42.2401      
   3.99975625000E+08; -43.3931      
   4.00600000000E+08; -35.8334      
   4.01224375000E+08; -36.4447      
   4.01848750000E+08; -34.225       
   4.02473125000E+08; -34.2837      
   4.03097500000E+08; -34.0846      
   4.03721875000E+08; -34.2979      
   4.04346250000E+08; -34.2489      
   4.04970625000E+08; -36.8433      
   4.05595000000E+08; -37.5924      
   4.06219375000E+08; -36.2633      
   4.06843750000E+08; -36.3445      
   4.07468125000E+08; -35.3534      
   4.08092500000E+08; -34.9166      
   4.08716875000E+08; -34.7789      
   4.09341250000E+08; -36.4345      
   4.09965625000E+08; -33.215       
   4.10590000000E+08; -32.5736      
   4.11214375000E+08; -32.52        
   4.11838750000E+08; -33.4212      
   4.12463125000E+08; -32.4367      
   4.13087500000E+08; -28.3825      
   4.13711875000E+08; -21.9626      
   4.14336250000E+08; -18.7874      
   4.14960625000E+08; -33.0462      
   4.15585000000E+08; -37.3441      
   4.16209375000E+08; -24.8949      
   4.16833750000E+08; -8.69695      
   4.17458125000E+08; -7.12987      
   4.18082500000E+08; -17.3666      
   4.18706875000E+08; -34.0135      
   4.19331250000E+08; -3.30176      
   4.19955625000E+08; -8.37634      
   4.20580000000E+08; -10.7271      
   4.21204375000E+08;  10.7678      
   4.21828750000E+08;  17.7406      
   4.22453125000E+08;  19.2674      
   4.23077500000E+08;  19.5213      
   4.23701875000E+08;  19.7454      
   4.24326250000E+08;  20.0038      
   4.24950625000E+08;  20.1212      
   4.25575000000E+08;  20.0904      
   4.26199375000E+08;  19.9197      
   4.26823750000E+08;  19.7212      
   4.27448125000E+08;  19.6908      
   4.28072500000E+08;  19.7487      
   4.28696875000E+08;  19.9365      
   4.29321250000E+08;  20.1481      
   4.29945625000E+08;  20.4117      
   4.30570000000E+08;  20.6008      
   4.31194375000E+08;  20.4552      
   4.31818750000E+08;  20.4523      
   4.32443125000E+08;  20.1753      
   4.33067500000E+08;  19.6944      
   4.33691875000E+08;  19.448       
   4.34316250000E+08;  18.9284      
   4.34940625000E+08;  18.9697      
   4.35565000000E+08;  18.8828      
   4.36189375000E+08;  18.8352      
   4.36813750000E+08;  19.199       
   4.37438125000E+08;  19.4187      
   4.38062500000E+08;  19.652       
   4.38686875000E+08;  20.1459      
   4.39311250000E+08;  20.0172      
   4.39935625000E+08;  20.1387      
   4.40560000000E+08;  19.6698      
   4.41184375000E+08;  19.5298      
   4.41808750000E+08;  19.2837      
   4.42433125000E+08;  18.5761      
   4.43057500000E+08;  18.9178      
   4.43681875000E+08;  19.1423      
   4.44306250000E+08;  18.7945      
   4.44930625000E+08;  18.2854      
   4.45555000000E+08;  15.4486      
   4.46179375000E+08;  14.4673      
   4.46803750000E+08;  11.4499      
   4.47428125000E+08;  7.83569      
   4.48052500000E+08;  6.19063      
   4.48676875000E+08;  3.39423      
   4.49301250000E+08;  0.972137     
   4.49925625000E+08; -1.27439      
   4.50550000000E+08; -3.17806      
   4.51174375000E+08; -4.42586      
   4.51798750000E+08; -7.26542      
   4.52423125000E+08; -9.58928      
   4.53047500000E+08; -11.219       
   4.53671875000E+08; -13.0435      
   4.54296250000E+08; -14.6973      
   4.54920625000E+08; -15.7999      
   4.55545000000E+08; -16.0258      
   4.56169375000E+08; -17.0791      
   4.56793750000E+08; -18.9235      
   4.57418125000E+08; -17.1367      
   4.58042500000E+08; -18.9839      
   4.58666875000E+08; -20.8182      
   4.59291250000E+08; -18.172       
   4.59915625000E+08; -21.8686      
   4.60540000000E+08; -20.2997      
   4.61164375000E+08; -20.6883      
   4.61788750000E+08; -18.099       
   4.62413125000E+08; -21.2506      
   4.63037500000E+08; -18.0438      
   4.63661875000E+08; -22.7382      
   4.64286250000E+08; -20.6481      
   4.64910625000E+08; -20.2167      
   4.65535000000E+08; -20.7225      
   4.66159375000E+08; -22.5952      
   4.66783750000E+08; -21.8497      
   4.67408125000E+08; -22.6525      
   4.68032500000E+08; -21.2279      
   4.68656875000E+08; -24.43        
   4.69281250000E+08; -23.0493      
   4.69905625000E+08; -24.3974      
   4.70530000000E+08; -28.0636      
   4.71154375000E+08; -26.7822      
   4.71778750000E+08; -26.9747      
   4.72403125000E+08; -30.3533      
   4.73027500000E+08; -29.3023      
   4.73651875000E+08; -45.7174      
   4.74276250000E+08; -31.4733      
   4.74900625000E+08; -46.5638      
   4.75525000000E+08; -43.5361      
   4.76149375000E+08; -38.255       
   4.76773750000E+08; -51.3929      
   4.77398125000E+08; -39.7413      
   4.78022500000E+08; -37.2076      
   4.78646875000E+08; -43.5593      
   4.79271250000E+08; -35.3869      
   4.79895625000E+08; -37.8652      
   4.80520000000E+08; -34.313       
   4.81144375000E+08; -38.2118      
   4.81768750000E+08; -35.5614      
   4.82393125000E+08; -42.0495      
   4.83017500000E+08; -34.8496      
   4.83641875000E+08; -39.0631      
   4.84266250000E+08; -34.9553      
   4.84890625000E+08; -37.8905      
   4.85515000000E+08; -41.1689      
   4.86139375000E+08; -36.675       
   4.86763750000E+08; -43.0666      
   4.87388125000E+08; -36.2077      
   4.88012500000E+08; -40.3545      
   4.88636875000E+08; -36.94        
   4.89261250000E+08; -45.0867      
   4.89885625000E+08; -39.9964      
   4.90510000000E+08; -35.1485      
   4.91134375000E+08; -37.9945      
   4.91758750000E+08; -38.7471      
   4.92383125000E+08; -38.9628      
   4.93007500000E+08; -38.1792      
   4.93631875000E+08; -36.4267      
   4.94256250000E+08; -36.47        
   4.94880625000E+08; -39.3469      
   4.95505000000E+08; -38.9584      
   4.96129375000E+08; -39.7414      
   4.96753750000E+08; -37.9292      
   4.97378125000E+08; -41.9899      
   4.98002500000E+08; -37.4317      
   4.98626875000E+08; -41.2938      
   4.99251250000E+08; -36.1793      
   4.99875625000E+08; -38.532       
   5.00500000000E+08; -36.9745      
   5.01124375000E+08; -42.0402      
   5.01748750000E+08; -45.8623      
   5.02373125000E+08; -38.5747      
   5.02997500000E+08; -36.0066      
   5.03621875000E+08; -37.4517      
   5.04246250000E+08; -40.0875      
   5.04870625000E+08; -37.9963      
   5.05495000000E+08; -36.6977      
   5.06119375000E+08; -37.6526      
   5.06743750000E+08; -41.7622      
   5.07368125000E+08; -39.0158      
   5.07992500000E+08; -35.5695      
   5.08616875000E+08; -36.2208      
   5.09241250000E+08; -37.8019      
   5.09865625000E+08; -43.4845      
   5.10490000000E+08; -39.4146      
   5.11114375000E+08; -35.6817      
   5.11738750000E+08; -39.4178      
   5.12363125000E+08; -36.0805      
   5.12987500000E+08; -40.6476      
   5.13611875000E+08; -37.6879      
   5.14236250000E+08; -39.5556      
   5.14860625000E+08; -35.5997      
   5.15485000000E+08; -37.4089      
   5.16109375000E+08; -37.9419      
   5.16733750000E+08; -38.389       
   5.17358125000E+08; -36.1063      
   5.17982500000E+08; -36.6196      
   5.18606875000E+08; -37.3423      
   5.19231250000E+08; -36.3992      
   5.19855625000E+08; -36.5164      
   5.20480000000E+08; -37.6624      
   5.21104375000E+08; -35.5864      
   5.21728750000E+08; -37.0091      
   5.22353125000E+08; -36.3179      
   5.22977500000E+08; -37.7866      
   5.23601875000E+08; -38.0393      
   5.24226250000E+08; -35.7127      
   5.24850625000E+08; -38.4093      
   5.25475000000E+08; -36.4443      
   5.26099375000E+08; -37.4753      
   5.26723750000E+08; -36.4374      
   5.27348125000E+08; -41.038       
   5.27972500000E+08; -35.1209      
   5.28596875000E+08; -37.2866      
   5.29221250000E+08; -37.1333      
   5.29845625000E+08; -38.9706      
   5.30470000000E+08; -37.5691      
   5.31094375000E+08; -36.9396      
   5.31718750000E+08; -36.6683      
   5.32343125000E+08; -39.357       
   5.32967500000E+08; -37.3837      
   5.33591875000E+08; -37.892       
   5.34216250000E+08; -34.8266      
   5.34840625000E+08; -37.7635      
   5.35465000000E+08; -39.2786      
   5.36089375000E+08; -35.587       
   5.36713750000E+08; -36.8536      
   5.37338125000E+08; -35.4287      
   5.37962500000E+08; -38.3489      
   5.38586875000E+08; -38.2559      
   5.39211250000E+08; -36.7021      
   5.39835625000E+08; -37.2951      
   5.40460000000E+08; -38.5179      
   5.41084375000E+08; -35.3703      
   5.41708750000E+08; -38.4245      
   5.42333125000E+08; -35.8587      
   5.42957500000E+08; -35.9995      
   5.43581875000E+08; -37.155       
   5.44206250000E+08; -37.7201      
   5.44830625000E+08; -38.4531      
   5.45455000000E+08; -36.406       
   5.46079375000E+08; -37.1881      
   5.46703750000E+08; -35.6434      
   5.47328125000E+08; -39.3517      
   5.47952500000E+08; -38.8256      
   5.48576875000E+08; -37.234       
   5.49201250000E+08; -35.0982      
   5.49825625000E+08; -37.4574      
   5.50450000000E+08; -39.204       
   5.51074375000E+08; -36.2555      
   5.51698750000E+08; -37.09        
   5.52323125000E+08; -36.5683      
   5.52947500000E+08; -38.085       
   5.53571875000E+08; -39.0055      
   5.54196250000E+08; -37.1241      
   5.54820625000E+08; -36.4035      
   5.55445000000E+08; -37.8358      
   5.56069375000E+08; -37.3817      
   5.56693750000E+08; -38.2         
   5.57318125000E+08; -36.5196      
   5.57942500000E+08; -35.4755      
   5.58566875000E+08; -37.4388      
   5.59191250000E+08; -37.2612      
   5.59815625000E+08; -36.5608      
   5.60440000000E+08; -36.6635      
   5.61064375000E+08; -37.9151      
   5.61688750000E+08; -37.4084      
   5.62313125000E+08; -36.7538      
   5.62937500000E+08; -37.192       
   5.63561875000E+08; -36.7471      
   5.64186250000E+08; -38.5515      
   5.64810625000E+08; -36.7811      
   5.65435000000E+08; -36.82        
   5.66059375000E+08; -38.511       
   5.66683750000E+08; -38.579       
   5.67308125000E+08; -36.6853      
   5.67932500000E+08; -37.4345      
   5.68556875000E+08; -37.8569      
   5.69181250000E+08; -37.6778      
   5.69805625000E+08; -37.4918      
   5.70430000000E+08; -37.2813      
   5.71054375000E+08; -36.3494      
   5.71678750000E+08; -38.0936      
   5.72303125000E+08; -37.5202      
   5.72927500000E+08; -38.1328      
   5.73551875000E+08; -37.0357      
   5.74176250000E+08; -37.6875      
   5.74800625000E+08; -37.5975      
   5.75425000000E+08; -37.3323      
   5.76049375000E+08; -37.8251      
   5.76673750000E+08; -37.3244      
   5.77298125000E+08; -37.1905      
   5.77922500000E+08; -36.9646      
   5.78546875000E+08; -40.1165      
   5.79171250000E+08; -36.937       
   5.79795625000E+08; -37.2134      
   5.80420000000E+08; -38.5139      
   5.81044375000E+08; -38.707       
   5.81668750000E+08; -37.6831      
   5.82293125000E+08; -36.621       
   5.82917500000E+08; -38.9893      
   5.83541875000E+08; -37.4621      
   5.84166250000E+08; -40.6151      
   5.84790625000E+08; -37.4396      
   5.85415000000E+08; -36.2122      
   5.86039375000E+08; -37.9177      
   5.86663750000E+08; -37.5069      
   5.87288125000E+08; -38.5992      
   5.87912500000E+08; -37.0299      
   5.88536875000E+08; -37.3182      
   5.89161250000E+08; -37.1064      
   5.89785625000E+08; -38.0685      
   5.90410000000E+08; -35.5597      
   5.91034375000E+08; -35.5904      
   5.91658750000E+08; -35.9061      
   5.92283125000E+08; -34.7522      
   5.92907500000E+08; -35.7957      
   5.93531875000E+08; -33.9909      
   5.94156250000E+08; -33.8976      
   5.94780625000E+08; -33.7649      
   5.95405000000E+08; -31.8651      
   5.96029375000E+08; -32.1651      
   5.96653750000E+08; -32.6645      
   5.97278125000E+08; -33.228       
   5.97902500000E+08; -31.1643      
   5.98526875000E+08; -33.2408      
   5.99151250000E+08; -32.013       
   5.99775625000E+08; -33.1089      
   6.00400000000E+08; -32.9174      
   6.01024375000E+08; -33.7677      
   6.01648750000E+08; -33.3317      
   6.02273125000E+08; -34.2254      
   6.02897500000E+08; -33.899       
   6.03521875000E+08; -33.3002      
   6.04146250000E+08; -34.719       
   6.04770625000E+08; -32.9446      
   6.05395000000E+08; -34.9044      
   6.06019375000E+08; -34.4126      
   6.06643750000E+08; -34.5164      
   6.07268125000E+08; -34.6922      
   6.07892500000E+08; -34.7904      
   6.08516875000E+08; -36.5606      
   6.09141250000E+08; -34.353       
   6.09765625000E+08; -34.6214      
   6.10390000000E+08; -34.0735      
   6.11014375000E+08; -36.9852      
   6.11638750000E+08; -35.597       
   6.12263125000E+08; -33.8527      
   6.12887500000E+08; -35.2085      
   6.13511875000E+08; -33.7984      
   6.14136250000E+08; -35.0276      
   6.14760625000E+08; -35.2123      
   6.15385000000E+08; -36.6047      
   6.16009375000E+08; -34.1749      
   6.16633750000E+08; -39.0442      
   6.17258125000E+08; -36.4353      
   6.17882500000E+08; -37.4098      
   6.18506875000E+08; -33.6178      
   6.19131250000E+08; -35.5808      
   6.19755625000E+08; -35.9705      
   6.20380000000E+08; -36.7765      
   6.21004375000E+08; -36.5565      
   6.21628750000E+08; -33.0739      
   6.22253125000E+08; -34.6926      
   6.22877500000E+08; -36.5895      
   6.23501875000E+08; -37.0769      
   6.24126250000E+08; -35.3669      
   6.24750625000E+08; -36.7205      
   6.25375000000E+08; -36.7011      
   6.25999375000E+08; -36.5719      
   6.26623750000E+08; -38.1043      
   6.27248125000E+08; -33.9273      
   6.27872500000E+08; -34.3188      
   6.28496875000E+08; -37.9974      
   6.29121250000E+08; -37.7544      
   6.29745625000E+08; -37.7567      
   6.30370000000E+08; -36.3076      
   6.30994375000E+08; -39.7017      
   6.31618750000E+08; -37.3036      
   6.32243125000E+08; -36.5414      
   6.32867500000E+08; -35.8432      
   6.33491875000E+08; -39.4723      
   6.34116250000E+08; -38.4483      
   6.34740625000E+08; -36.9761      
   6.35365000000E+08; -39.1077      
   6.35989375000E+08; -36.2175      
   6.36613750000E+08; -35.7364      
   6.37238125000E+08; -36.8307      
   6.37862500000E+08; -39.6199      
   6.38486875000E+08; -36.9388      
   6.39111250000E+08; -37.7028      
   6.39735625000E+08; -38.411       
   6.40360000000E+08; -34.5549      
   6.40984375000E+08; -39.7171      
   6.41608750000E+08; -36.7802      
   6.42233125000E+08; -33.7292      
   6.42857500000E+08; -39.0958      
   6.43481875000E+08; -39.1553      
   6.44106250000E+08; -37.462       
   6.44730625000E+08; -36.0086      
   6.45355000000E+08; -36.2062      
   6.45979375000E+08; -36.8693      
   6.46603750000E+08; -36.4419      
   6.47228125000E+08; -40.6812      
   6.47852500000E+08; -35.7579      
   6.48476875000E+08; -36.5354      
   6.49101250000E+08; -35.3932      
   6.49725625000E+08; -38.8251      
   6.50350000000E+08; -36.6949      
   6.50974375000E+08; -34.5665      
   6.51598750000E+08; -39.0565      
   6.52223125000E+08; -34.5802      
   6.52847500000E+08; -37.1889      
   6.53471875000E+08; -36.5815      
   6.54096250000E+08; -33.6399      
   6.54720625000E+08; -37.3605      
   6.55345000000E+08; -36.8685      
   6.55969375000E+08; -37.7011      
   6.56593750000E+08; -34.892       
   6.57218125000E+08; -37.0358      
   6.57842500000E+08; -36.7842      
   6.58466875000E+08; -36.1012      
   6.59091250000E+08; -38.2134      
   6.59715625000E+08; -36.2282      
   6.60340000000E+08; -36.3489      
   6.60964375000E+08; -36.4838      
   6.61588750000E+08; -36.7833      
   6.62213125000E+08; -36.7824      
   6.62837500000E+08; -36.9991      
   6.63461875000E+08; -35.8924      
   6.64086250000E+08; -35.1801      
   6.64710625000E+08; -35.4044      
   6.65335000000E+08; -37.1249      
   6.65959375000E+08; -36.3219      
   6.66583750000E+08; -34.921       
   6.67208125000E+08; -36.9572      
   6.67832500000E+08; -36.8924      
   6.68456875000E+08; -36.6667      
   6.69081250000E+08; -35.5224      
   6.69705625000E+08; -35.5842      
   6.70330000000E+08; -34.8225      
   6.70954375000E+08; -38.2436      
   6.71578750000E+08; -36.7961      
   6.72203125000E+08; -34.6765      
   6.72827500000E+08; -37.658       
   6.73451875000E+08; -33.9422      
   6.74076250000E+08; -40.8949      
   6.74700625000E+08; -36.1654      
   6.75325000000E+08; -34.1216      
   6.75949375000E+08; -36.4027      
   6.76573750000E+08; -35.109       
   6.77198125000E+08; -38.705       
   6.77822500000E+08; -37.4981      
   6.78446875000E+08; -36.2378      
   6.79071250000E+08; -33.544       
   6.79695625000E+08; -35.7018      
   6.80320000000E+08; -38.8092      
   6.80944375000E+08; -37.2071      
   6.81568750000E+08; -36.564       
   6.82193125000E+08; -33.8788      
   6.82817500000E+08; -36.0454      
   6.83441875000E+08; -36.4452      
   6.84066250000E+08; -37.6968      
   6.84690625000E+08; -35.164       
   6.85315000000E+08; -36.3659      
   6.85939375000E+08; -35.2754      
   6.86563750000E+08; -35.5712      
   6.87188125000E+08; -36.9821      
   6.87812500000E+08; -36.2873      
   6.88436875000E+08; -35.7596      
   6.89061250000E+08; -36.196       
   6.89685625000E+08; -35.4475      
   6.90310000000E+08; -35.2294      
   6.90934375000E+08; -36.3995      
   6.91558750000E+08; -37.3313      
   6.92183125000E+08; -36.4996      
   6.92807500000E+08; -35.1928      
   6.93431875000E+08; -36.8709      
   6.94056250000E+08; -34.979       
   6.94680625000E+08; -37.5174      
   6.95305000000E+08; -36.5239      
   6.95929375000E+08; -36.7739      
   6.96553750000E+08; -35.6558      
   6.97178125000E+08; -34.5582      
   6.97802500000E+08; -37.9032      
   6.98426875000E+08; -35.6212      
   6.99051250000E+08; -38.2026      
   6.99675625000E+08; -34.5554      
   7.00300000000E+08; -35.8758      
   7.00924375000E+08; -35.9589      
   7.01548750000E+08; -35.7002      
   7.02173125000E+08; -38.1242      
   7.02797500000E+08; -35.2126      
   7.03421875000E+08; -35.4507      
   7.04046250000E+08; -34.8131      
   7.04670625000E+08; -35.8127      
   7.05295000000E+08; -37.325       
   7.05919375000E+08; -35.8169      
   7.06543750000E+08; -36.9433      
   7.07168125000E+08; -34.8252      
   7.07792500000E+08; -36.7134      
   7.08416875000E+08; -35.5138      
   7.09041250000E+08; -36.8189      
   7.09665625000E+08; -36.9281      
   7.10290000000E+08; -35.7014      
   7.10914375000E+08; -36.4688      
   7.11538750000E+08; -35.4858      
   7.12163125000E+08; -35.902       
   7.12787500000E+08; -35.7096      
   7.13411875000E+08; -36.4253      
   7.14036250000E+08; -35.5967      
   7.14660625000E+08; -35.6603      
   7.15285000000E+08; -36.1833      
   7.15909375000E+08; -36.2106      
   7.16533750000E+08; -36.9315      
   7.17158125000E+08; -37.0688      
   7.17782500000E+08; -36.1067      
   7.18406875000E+08; -34.8309      
   7.19031250000E+08; -35.8698      
   7.19655625000E+08; -36.2923      
   7.20280000000E+08; -35.6956      
   7.20904375000E+08; -36.0611      
   7.21528750000E+08; -36.382       
   7.22153125000E+08; -36.1505      
   7.22777500000E+08; -35.9078      
   7.23401875000E+08; -36.4228      
   7.24026250000E+08; -35.3373      
   7.24650625000E+08; -35.6845      
   7.25275000000E+08; -36.3225      
   7.25899375000E+08; -35.8503      
   7.26523750000E+08; -35.5208      
   7.27148125000E+08; -36.426       
   7.27772500000E+08; -35.3254      
   7.28396875000E+08; -35.7383      
   7.29021250000E+08; -35.9844      
   7.29645625000E+08; -35.7988      
   7.30270000000E+08; -36.851       
   7.30894375000E+08; -36.0125      
   7.31518750000E+08; -36.5413      
   7.32143125000E+08; -35.692       
   7.32767500000E+08; -35.9896      
   7.33391875000E+08; -36.0102      
   7.34016250000E+08; -35.8616      
   7.34640625000E+08; -36.1046      
   7.35265000000E+08; -35.8548      
   7.35889375000E+08; -36.0561      
   7.36513750000E+08; -35.5705      
   7.37138125000E+08; -34.7306      
   7.37762500000E+08; -35.6977      
   7.38386875000E+08; -35.7164      
   7.39011250000E+08; -35.9756      
   7.39635625000E+08; -35.2131      
   7.40260000000E+08; -36.4369      
   7.40884375000E+08; -34.646       
   7.41508750000E+08; -35.279       
   7.42133125000E+08; -36.7524      
   7.42757500000E+08; -35.0105      
   7.43381875000E+08; -35.9025      
   7.44006250000E+08; -35.2887      
   7.44630625000E+08; -35.7678      
   7.45255000000E+08; -34.4375      
   7.45879375000E+08; -35.0481      
   7.46503750000E+08; -35.7142      
   7.47128125000E+08; -34.8741      
   7.47752500000E+08; -36.1215      
   7.48376875000E+08; -34.4403      
   7.49001250000E+08; -36.0459      
   7.49625625000E+08; -35.8117      
   7.50250000000E+08; -35.4984      
   7.50874375000E+08; -35.3288      
   7.51498750000E+08; -35.0075      
   7.52123125000E+08; -35.0043      
   7.52747500000E+08; -35.1906      
   7.53371875000E+08; -35.3519      
   7.53996250000E+08; -34.6857      
   7.54620625000E+08; -35.4751      
   7.55245000000E+08; -34.9038      
   7.55869375000E+08; -35.0192      
   7.56493750000E+08; -33.8939      
   7.57118125000E+08; -35.4764      
   7.57742500000E+08; -34.935       
   7.58366875000E+08; -34.6271      
   7.58991250000E+08; -35.2945      
   7.59615625000E+08; -34.9623      
   7.60240000000E+08; -34.9475      
   7.60864375000E+08; -34.7108      
   7.61488750000E+08; -34.5224      
   7.62113125000E+08; -34.2644      
   7.62737500000E+08; -35.1586      
   7.63361875000E+08; -35.1521      
   7.63986250000E+08; -34.5304      
   7.64610625000E+08; -35.4096      
   7.65235000000E+08; -34.1507      
   7.65859375000E+08; -35.1925      
   7.66483750000E+08; -34.0499      
   7.67108125000E+08; -34.7247      
   7.67732500000E+08; -34.9326      
   7.68356875000E+08; -34.2964      
   7.68981250000E+08; -35.0016      
   7.69605625000E+08; -34.8848      
   7.70230000000E+08; -35.3589      
   7.70854375000E+08; -34.3011      
   7.71478750000E+08; -35.2352      
   7.72103125000E+08; -34.5101      
   7.72727500000E+08; -34.1915      
   7.73351875000E+08; -35.1656      
   7.73976250000E+08; -35.2143      
   7.74600625000E+08; -35.2787      
   7.75225000000E+08; -35.1211      
   7.75849375000E+08; -34.7704      
   7.76473750000E+08; -34.4458      
   7.77098125000E+08; -34.8339      
   7.77722500000E+08; -35.5256      
   7.78346875000E+08; -34.9369      
   7.78971250000E+08; -34.688       
   7.79595625000E+08; -35.2399      
   7.80220000000E+08; -34.431       
   7.80844375000E+08; -34.8793      
   7.81468750000E+08; -35.6045      
   7.82093125000E+08; -35.6636      
   7.82717500000E+08; -34.577       
   7.83341875000E+08; -35.0146      
   7.83966250000E+08; -35.1609      
   7.84590625000E+08; -35.2376      
   7.85215000000E+08; -35.4255      
   7.85839375000E+08; -35.0378      
   7.86463750000E+08; -35.2107      
   7.87088125000E+08; -34.9677      
   7.87712500000E+08; -34.8875      
   7.88336875000E+08; -35.3077      
   7.88961250000E+08; -35.5906      
   7.89585625000E+08; -34.951       
   7.90210000000E+08; -35.5354      
   7.90834375000E+08; -35.6434      
   7.91458750000E+08; -35.4676      
   7.92083125000E+08; -35.1797      
   7.92707500000E+08; -35.0933      
   7.93331875000E+08; -35.499       
   7.93956250000E+08; -35.7675      
   7.94580625000E+08; -35.4786      
   7.95205000000E+08; -35.1548      
   7.95829375000E+08; -34.9195      
   7.96453750000E+08; -35.5106      
   7.97078125000E+08; -35.4058      
   7.97702500000E+08; -35.8298      
   7.98326875000E+08; -35.1294      
   7.98951250000E+08; -35.1994      
   7.99575625000E+08; -35.2952      
   8.00200000000E+08; -35.2457      
   8.00824375000E+08; -35.7036      
   8.01448750000E+08; -35.0297      
   8.02073125000E+08; -35.3116      
   8.02697500000E+08; -35.5128      
   8.03321875000E+08; -36.3509      
   8.03946250000E+08; -35.0646      
   8.04570625000E+08; -35.5018      
   8.05195000000E+08; -35.6528      
   8.05819375000E+08; -36.3544      
   8.06443750000E+08; -35.0718      
   8.07068125000E+08; -35.1264      
   8.07692500000E+08; -35.7855      
   8.08316875000E+08; -35.5374      
   8.08941250000E+08; -35.5211      
   8.09565625000E+08; -35.5639      
   8.10190000000E+08; -35.0673      
   8.10814375000E+08; -35.2182      
   8.11438750000E+08; -35.0513      
   8.12063125000E+08; -35.7555      
   8.12687500000E+08; -35.2087      
   8.13311875000E+08; -35.2458      
   8.13936250000E+08; -35.2945      
   8.14560625000E+08; -35.2042      
   8.15185000000E+08; -35.0709      
   8.15809375000E+08; -34.7721      
   8.16433750000E+08; -34.8431      
   8.17058125000E+08; -35.2839      
   8.17682500000E+08; -34.3499      
   8.18306875000E+08; -35.155       
   8.18931250000E+08; -35.5743      
   8.19555625000E+08; -35.3902      
   8.20180000000E+08; -35.0331      
   8.20804375000E+08; -34.455       
   8.21428750000E+08; -35.2882      
   8.22053125000E+08; -35.2921      
   8.22677500000E+08; -34.4153      
   8.23301875000E+08; -34.5765      
   8.23926250000E+08; -35.0253      
   8.24550625000E+08; -34.9156      
   8.25175000000E+08; -34.5294      
   8.25799375000E+08; -35.4352      
   8.26423750000E+08; -34.8635      
   8.27048125000E+08; -35.2342      
   8.27672500000E+08; -34.2269      
   8.28296875000E+08; -34.8982      
   8.28921250000E+08; -34.5208      
   8.29545625000E+08; -34.26        
   8.30170000000E+08; -33.7494      
   8.30794375000E+08; -34.8635      
   8.31418750000E+08; -34.4565      
   8.32043125000E+08; -33.6708      
   8.32667500000E+08; -34.7559      
   8.33291875000E+08; -34.9818      
   8.33916250000E+08; -34.0308      
   8.34540625000E+08; -33.8623      
   8.35165000000E+08; -34.5609      
   8.35789375000E+08; -34.7057      
   8.36413750000E+08; -34.4516      
   8.37038125000E+08; -33.9712      
   8.37662500000E+08; -34.1273      
   8.38286875000E+08; -34.7994      
   8.38911250000E+08; -33.5861      
   8.39535625000E+08; -33.7787      
   8.40160000000E+08; -34.0387      
   8.40784375000E+08; -33.9837      
   8.41408750000E+08; -33.8338      
   8.42033125000E+08; -33.8621      
   8.42657500000E+08; -34.9819      
   8.43281875000E+08; -34.8996      
   8.43906250000E+08; -33.5461      
   8.44530625000E+08; -34.1124      
   8.45155000000E+08; -34.2272      
   8.45779375000E+08; -34.0584      
   8.46403750000E+08; -33.9617      
   8.47028125000E+08; -34.8872      
   8.47652500000E+08; -34.222       
   8.48276875000E+08; -33.5368      
   8.48901250000E+08; -33.4791      
   8.49525625000E+08; -34.404       
   8.50150000000E+08; -34.9259      
   8.50774375000E+08; -33.4722      
   8.51398750000E+08; -33.7716      
   8.52023125000E+08; -34.1465      
   8.52647500000E+08; -33.7492      
   8.53271875000E+08; -34.0551      
   8.53896250000E+08; -34.0005      
   8.54520625000E+08; -34.261       
   8.55145000000E+08; -33.6293      
   8.55769375000E+08; -34.0388      
   8.56393750000E+08; -33.849       
   8.57018125000E+08; -33.4764      
   8.57642500000E+08; -34.6932      
   8.58266875000E+08; -34.1357      
   8.58891250000E+08; -33.301       
   8.59515625000E+08; -34.1746      
   8.60140000000E+08; -34.6812      
   8.60764375000E+08; -34.0803      
   8.61388750000E+08; -33.2837      
   8.62013125000E+08; -33.8696      
   8.62637500000E+08; -34.1353      
   8.63261875000E+08; -34.2064      
   8.63886250000E+08; -33.6967      
   8.64510625000E+08; -33.8939      
   8.65135000000E+08; -33.8901      
   8.65759375000E+08; -33.9063      
   8.66383750000E+08; -33.7949      
   8.67008125000E+08; -35.0557      
   8.67632500000E+08; -34.2026      
   8.68256875000E+08; -33.5168      
   8.68881250000E+08; -33.6593      
   8.69505625000E+08; -34.7179      
   8.70130000000E+08; -33.6353      
   8.70754375000E+08; -33.7904      
   8.71378750000E+08; -34.1807      
   8.72003125000E+08; -35.0637      
   8.72627500000E+08; -34.2861      
   8.73251875000E+08; -33.6065      
   8.73876250000E+08; -34.1964      
   8.74500625000E+08; -34.4639      
   8.75125000000E+08; -34.5509      
   8.75749375000E+08; -34.1666      
   8.76373750000E+08; -34.3455      
   8.76998125000E+08; -34.1853      
   8.77622500000E+08; -34.8551      
   8.78246875000E+08; -34.2438      
   8.78871250000E+08; -33.2946      
   8.79495625000E+08; -34.991       
   8.80120000000E+08; -35.0446      
   8.80744375000E+08; -34.3747      
   8.81368750000E+08; -33.5397      
   8.81993125000E+08; -34.1505      
   8.82617500000E+08; -34.2122      
   8.83241875000E+08; -33.2316      
   8.83866250000E+08; -33.7987      
   8.84490625000E+08; -34.7807      
   8.85115000000E+08; -33.8307      
   8.85739375000E+08; -33.7932      
   8.86363750000E+08; -34.1931      
   8.86988125000E+08; -34.3993      
   8.87612500000E+08; -33.994       
   8.88236875000E+08; -34.0932      
   8.88861250000E+08; -33.7787      
   8.89485625000E+08; -34.2515      
   8.90110000000E+08; -33.4685      
   8.90734375000E+08; -34.1271      
   8.91358750000E+08; -34.2767      
   8.91983125000E+08; -34.9889      
   8.92607500000E+08; -34.4567      
   8.93231875000E+08; -33.152       
   8.93856250000E+08; -33.9976      
   8.94480625000E+08; -35.0234      
   8.95105000000E+08; -34.2942      
   8.95729375000E+08; -33.4737      
   8.96353750000E+08; -33.4109      
   8.96978125000E+08; -34.7082      
   8.97602500000E+08; -34.0822      
   8.98226875000E+08; -33.9634      
   8.98851250000E+08; -33.5794      
   8.99475625000E+08; -34.795       
   9.00100000000E+08; -34.268       
   9.00724375000E+08; -33.8176      
   9.01348750000E+08; -34.1485      
   9.01973125000E+08; -33.9234      
   9.02597500000E+08; -34.1555      
   9.03221875000E+08; -33.8771      
   9.03846250000E+08; -33.7159      
   9.04470625000E+08; -33.5843      
   9.05095000000E+08; -34.2239      
   9.05719375000E+08; -34.0315      
   9.06343750000E+08; -34.0189      
   9.06968125000E+08; -34.205       
   9.07592500000E+08; -33.5129      
   9.08216875000E+08; -34.0408      
   9.08841250000E+08; -33.9275      
   9.09465625000E+08; -33.8226      
   9.10090000000E+08; -33.8312      
   9.10714375000E+08; -33.5568      
   9.11338750000E+08; -34.028       
   9.11963125000E+08; -33.7268      
   9.12587500000E+08; -33.672       
   9.13211875000E+08; -33.6068      
   9.13836250000E+08; -33.6164      
   9.14460625000E+08; -34.2825      
   9.15085000000E+08; -33.0959      
   9.15709375000E+08; -33.4231      
   9.16333750000E+08; -33.7068      
   9.16958125000E+08; -33.791       
   9.17582500000E+08; -34.0217      
   9.18206875000E+08; -33.2405      
   9.18831250000E+08; -33.5493      
   9.19455625000E+08; -33.4919      
   9.20080000000E+08; -34.1725      
   9.20704375000E+08; -33.6471      
   9.21328750000E+08; -33.2866      
   9.21953125000E+08; -33.716       
   9.22577500000E+08; -33.6089      
   9.23201875000E+08; -33.229       
   9.23826250000E+08; -33.0866      
   9.24450625000E+08; -33.8989      
   9.25075000000E+08; -33.2329      
   9.25699375000E+08; -33.5024      
   9.26323750000E+08; -33.385       
   9.26948125000E+08; -33.7327      
   9.27572500000E+08; -33.5163      
   9.28196875000E+08; -33.2408      
   9.28821250000E+08; -34.0006      
   9.29445625000E+08; -33.3624      
   9.30070000000E+08; -33.3107      
   9.30694375000E+08; -33.1863      
   9.31318750000E+08; -33.5364      
   9.31943125000E+08; -34.0318      
   9.32567500000E+08; -32.9425      
   9.33191875000E+08; -33.5628      
   9.33816250000E+08; -33.1225      
   9.34440625000E+08; -33.1546      
   9.35065000000E+08; -32.9699      
   9.35689375000E+08; -33.4871      
   9.36313750000E+08; -33.5312      
   9.36938125000E+08; -32.8419      
   9.37562500000E+08; -33.0353      
   9.38186875000E+08; -33.5157      
   9.38811250000E+08; -33.3738      
   9.39435625000E+08; -33.7852      
   9.40060000000E+08; -33.3083      
   9.40684375000E+08; -33.9068      
   9.41308750000E+08; -33.4431      
   9.41933125000E+08; -33.2765      
   9.42557500000E+08; -33.7228      
   9.43181875000E+08; -33.2262      
   9.43806250000E+08; -33.7401      
   9.44430625000E+08; -33.524       
   9.45055000000E+08; -33.9622      
   9.45679375000E+08; -32.9915      
   9.46303750000E+08; -33.2149      
   9.46928125000E+08; -33.1648      
   9.47552500000E+08; -32.9254      
   9.48176875000E+08; -33.6211      
   9.48801250000E+08; -32.9505      
   9.49425625000E+08; -33.1594      
   9.50050000000E+08; -33.0896      
   9.50674375000E+08; -33.3592      
   9.51298750000E+08; -32.852       
   9.51923125000E+08; -33.5444      
   9.52547500000E+08; -32.8657      
   9.53171875000E+08; -33.285       
   9.53796250000E+08; -33.4148      
   9.54420625000E+08; -33.3565      
   9.55045000000E+08; -33.5624      
   9.55669375000E+08; -33.0156      
   9.56293750000E+08; -33.1571      
   9.56918125000E+08; -32.5836      
   9.57542500000E+08; -33.2573      
   9.58166875000E+08; -33.0016      
   9.58791250000E+08; -32.701       
   9.59415625000E+08; -32.6935      
   9.60040000000E+08; -32.8327      
   9.60664375000E+08; -33.1413      
   9.61288750000E+08; -32.9715      
   9.61913125000E+08; -32.6876      
   9.62537500000E+08; -33.4344      
   9.63161875000E+08; -32.9052      
   9.63786250000E+08; -32.8013      
   9.64410625000E+08; -33.0543      
   9.65035000000E+08; -32.7732      
   9.65659375000E+08; -32.8162      
   9.66283750000E+08; -32.6935      
   9.66908125000E+08; -33.0037      
   9.67532500000E+08; -32.5733      
   9.68156875000E+08; -33.4215      
   9.68781250000E+08; -32.8649      
   9.69405625000E+08; -32.8904      
   9.70030000000E+08; -32.3738      
   9.70654375000E+08; -32.8432      
   9.71278750000E+08; -32.4631      
   9.71903125000E+08; -32.6441      
   9.72527500000E+08; -33.309       
   9.73151875000E+08; -32.9131      
   9.73776250000E+08; -33.3222      
   9.74400625000E+08; -32.399       
   9.75025000000E+08; -32.7627      
   9.75649375000E+08; -32.6008      
   9.76273750000E+08; -32.5034      
   9.76898125000E+08; -32.7156      
   9.77522500000E+08; -32.0032      
   9.78146875000E+08; -32.93        
   9.78771250000E+08; -32.3385      
   9.79395625000E+08; -32.5592      
   9.80020000000E+08; -33.2282      
   9.80644375000E+08; -32.4869      
   9.81268750000E+08; -32.8129      
   9.81893125000E+08; -32.8631      
   9.82517500000E+08; -32.5947      
   9.83141875000E+08; -32.8907      
   9.83766250000E+08; -32.889       
   9.84390625000E+08; -32.5149      
   9.85015000000E+08; -32.4257      
   9.85639375000E+08; -32.3005      
   9.86263750000E+08; -32.6379      
   9.86888125000E+08; -32.3645      
   9.87512500000E+08; -32.6919      
   9.88136875000E+08; -32.6245      
   9.88761250000E+08; -32.8575      
   9.89385625000E+08; -32.2968      
   9.90010000000E+08; -32.341       
   9.90634375000E+08; -32.459       
   9.91258750000E+08; -32.5266      
   9.91883125000E+08; -32.7732      
   9.92507500000E+08; -32.4025      
   9.93131875000E+08; -31.6959      
   9.93756250000E+08; -32.2671      
   9.94380625000E+08; -32.4511      
   9.95005000000E+08; -31.8623      
   9.95629375000E+08; -32.265       
   9.96253750000E+08; -32.5669      
   9.96878125000E+08; -32.8867      
   9.97502500000E+08; -32.1496      
   9.98126875000E+08; -32.5242      
   9.98751250000E+08; -32.1443      
   9.99375625000E+08; -32.3226      
   1.00000000000E+09; -32.2513      
